{
    "resourceType": "Questionnaire",
    "text": {
        "status": "generated",
        "div": "<div><p><b>Generated Narrative with Details</b></p><p><b>status</b>: draft</p><p><b>date</b>: 2-Sep 2014 5:51</p><p><b>publisher</b>: HL7 FHIR Standard</p><blockquote><p><b>group</b></p><p><b>linkId</b>: CarePlan</p><p><b>title</b>: Healthcare plan for patient</p><p><b>required</b>: true</p><blockquote><p><b>group</b></p></blockquote><blockquote><p><b>group</b></p></blockquote><blockquote><p><b>group</b></p></blockquote><blockquote><p><b>group</b></p></blockquote><blockquote><p><b>group</b></p></blockquote><blockquote><p><b>group</b></p></blockquote><blockquote><p><b>group</b></p></blockquote><blockquote><p><b>group</b></p></blockquote><blockquote><p><b>group</b></p></blockquote><blockquote><p><b>group</b></p></blockquote></blockquote></div>"
    },
    "contained": [
        {
            "resourceType": "ValueSet",
            "id": "vs1",
            "name": "Type options for CarePlan.participant.member",
            "description": "Type options for CarePlan.participant.member",
            "status": "active",
            "define": {
                "system": "urn:uuid:4d9cad4b-8b04-49f6-b69d-e9094e965444",
                "concept": [
                    {
                        "code": "Practitioner",
                        "display": "Practitioner"
                    },
                    {
                        "code": "RelatedPerson",
                        "display": "RelatedPerson"
                    },
                    {
                        "code": "Patient",
                        "display": "Patient"
                    },
                    {
                        "code": "Organization",
                        "display": "Organization"
                    }
                ]
            }
        },
        {
            "resourceType": "ValueSet",
            "id": "vs2",
            "name": "Type options for CarePlan.activity.detail",
            "description": "Type options for CarePlan.activity.detail",
            "status": "active",
            "define": {
                "system": "urn:uuid:1cfac381-f8ca-419d-a4e1-f3bea665e424",
                "concept": [
                    {
                        "code": "Procedure",
                        "display": "Procedure"
                    },
                    {
                        "code": "MedicationPrescription",
                        "display": "MedicationPrescription"
                    },
                    {
                        "code": "DiagnosticOrder",
                        "display": "DiagnosticOrder"
                    },
                    {
                        "code": "Encounter",
                        "display": "Encounter"
                    },
                    {
                        "code": "Supply",
                        "display": "Supply"
                    }
                ]
            }
        },
        {
            "resourceType": "ValueSet",
            "id": "vs3",
            "name": "Type options for CarePlan.activity.simple.timing[x]",
            "description": "Type options for CarePlan.activity.simple.timing[x]",
            "status": "active",
            "define": {
                "system": "urn:uuid:fb2048dc-1d6c-4b6e-b8b5-e73d8c325e75",
                "concept": [
                    {
                        "code": "Schedule",
                        "display": "Schedule"
                    },
                    {
                        "code": "Period",
                        "display": "Period"
                    },
                    {
                        "code": "string",
                        "display": "string"
                    }
                ]
            }
        },
        {
            "resourceType": "ValueSet",
            "id": "vs4",
            "name": "Type options for CarePlan.activity.simple.performer",
            "description": "Type options for CarePlan.activity.simple.performer",
            "status": "active",
            "define": {
                "system": "urn:uuid:c48a2a46-ccd6-4768-9905-019adc505478",
                "concept": [
                    {
                        "code": "Practitioner",
                        "display": "Practitioner"
                    },
                    {
                        "code": "Organization",
                        "display": "Organization"
                    },
                    {
                        "code": "RelatedPerson",
                        "display": "RelatedPerson"
                    },
                    {
                        "code": "Patient",
                        "display": "Patient"
                    }
                ]
            }
        },
        {
            "resourceType": "ValueSet",
            "id": "vs5",
            "name": "Type options for CarePlan.activity.simple.product",
            "description": "Type options for CarePlan.activity.simple.product",
            "status": "active",
            "define": {
                "system": "urn:uuid:4b3f6ce7-61d6-46e1-8e63-a38fa52f336b",
                "concept": [
                    {
                        "code": "Medication",
                        "display": "Medication"
                    },
                    {
                        "code": "Substance",
                        "display": "Substance"
                    }
                ]
            }
        }
    ],
    "status": "draft",
    "date": "2014-09-02T05:51:24.789-00:00",
    "publisher": "HL7 FHIR Standard",
    "group": {
        "extension": [
            {
                "url": "http://hl7.org/fhir/Profile/questionnaire-extensions#flyover",
                "valueString": "Describes the intention of how one or more practitioners intend to deliver care for a particular patient for a period of time, possibly limited to care for a specific condition or set of conditions."
            }
        ],
        "linkId": "CarePlan",
        "title": "Healthcare plan for patient",
        "required": true,
        "group": [
            {
                "extension": [
                    {
                        "url": "http://hl7.org/fhir/Profile/questionnaire-extensions#flyover",
                        "valueString": "This records identifiers associated with this care plan that are defined by business processed and/ or used to refer to it when a direct URL reference to the resource itself is not appropriate (e.g. in CDA documents, or in written / printed documentation). null"
                    },
                    {
                        "url": "http://www.healthintersections.com.au/fhir/Profile/metadata#type",
                        "valueString": "Identifier"
                    }
                ],
                "linkId": "CarePlan.identifier",
                "text": "External Ids for this plan",
                "repeats": true,
                "question": [
                    {
                        "linkId": "CarePlan.identifier.label",
                        "text": "label:",
                        "type": "string"
                    },
                    {
                        "linkId": "CarePlan.identifier.system",
                        "text": "system:",
                        "type": "string"
                    },
                    {
                        "linkId": "CarePlan.identifier.value",
                        "text": "value:",
                        "type": "string"
                    }
                ]
            },
            {
                "extension": [
                    {
                        "url": "http://hl7.org/fhir/Profile/questionnaire-extensions#flyover",
                        "valueString": "Identifies the patient/subject whose intended care is described by the plan. null"
                    },
                    {
                        "url": "http://www.healthintersections.com.au/fhir/Profile/metadata#type",
                        "valueString": "ResourceReference"
                    },
                    {
                        "url": "http://www.healthintersections.com.au/fhir/Profile/metadata#reference",
                        "valueString": "/Patient?subject=$subj&patient=$subj&encounter=$encounter"
                    }
                ],
                "linkId": "CarePlan.patient",
                "question": [
                    {
                        "linkId": "CarePlan.patient.value",
                        "text": "Who care plan is for",
                        "type": "reference"
                    }
                ]
            },
            {
                "extension": [
                    {
                        "url": "http://hl7.org/fhir/Profile/questionnaire-extensions#flyover",
                        "valueString": "Indicates whether the plan is currently being acted upon, represents future intentions or is now just historical record. null"
                    },
                    {
                        "url": "http://www.healthintersections.com.au/fhir/Profile/metadata#type",
                        "valueString": "code"
                    }
                ],
                "linkId": "CarePlan.status",
                "text": "planned | active | completed",
                "required": true,
                "question": [
                    {
                        "linkId": "CarePlan.status.value",
                        "text": "Status",
                        "type": "choice",
                        "options": {
                            "reference": "http://hl7.org/fhir/vs/care-plan-status"
                        }
                    }
                ]
            },
            {
                "extension": [
                    {
                        "url": "http://hl7.org/fhir/Profile/questionnaire-extensions#flyover",
                        "valueString": "Indicates when the plan did (or is intended to) come into effect and end."
                    },
                    {
                        "url": "http://www.healthintersections.com.au/fhir/Profile/metadata#type",
                        "valueString": "Period"
                    }
                ],
                "linkId": "CarePlan.period",
                "text": "Time period plan covers",
                "question": [
                    {
                        "linkId": "CarePlan.period.low",
                        "text": "start:",
                        "type": "dateTime"
                    },
                    {
                        "linkId": "CarePlan.period.end",
                        "text": "end:",
                        "type": "dateTime"
                    }
                ]
            },
            {
                "extension": [
                    {
                        "url": "http://hl7.org/fhir/Profile/questionnaire-extensions#flyover",
                        "valueString": "Identifies the most recent date on which the plan has been revised. null"
                    },
                    {
                        "url": "http://www.healthintersections.com.au/fhir/Profile/metadata#type",
                        "valueString": "datetime"
                    }
                ],
                "linkId": "CarePlan.modified",
                "question": [
                    {
                        "linkId": "CarePlan.modified.value",
                        "text": "When last updated",
                        "type": "dateTime"
                    }
                ]
            },
            {
                "extension": [
                    {
                        "url": "http://hl7.org/fhir/Profile/questionnaire-extensions#flyover",
                        "valueString": "Identifies the conditions/problems/concerns/diagnoses/etc. whose management and/or mitigation are handled by this plan. null"
                    },
                    {
                        "url": "http://www.healthintersections.com.au/fhir/Profile/metadata#type",
                        "valueString": "ResourceReference"
                    },
                    {
                        "url": "http://www.healthintersections.com.au/fhir/Profile/metadata#reference",
                        "valueString": "/Condition?subject=$subj&patient=$subj&encounter=$encounter"
                    }
                ],
                "linkId": "CarePlan.concern",
                "repeats": true,
                "question": [
                    {
                        "linkId": "CarePlan.concern.value",
                        "text": "Health issues this plan addresses",
                        "type": "reference"
                    }
                ]
            },
            {
                "extension": [
                    {
                        "url": "http://hl7.org/fhir/Profile/questionnaire-extensions#flyover",
                        "valueString": "Identifies all people and organizations who are expected to be involved in the care envisioned by this plan."
                    }
                ],
                "linkId": "CarePlan.participant",
                "title": "Who's involved in plan?",
                "repeats": true,
                "group": [
                    {
                        "extension": [
                            {
                                "url": "http://hl7.org/fhir/Profile/questionnaire-extensions#flyover",
                                "valueString": "Indicates specific responsibility of an individual within the care plan.  E.g. \"Primary physician\", \"Team coordinator\", \"Caregiver\", etc."
                            },
                            {
                                "url": "http://www.healthintersections.com.au/fhir/Profile/metadata#type",
                                "valueString": "CodeableConcept"
                            }
                        ],
                        "linkId": "CarePlan.participant.role",
                        "text": "Type of involvement",
                        "question": [
                            {
                                "linkId": "CarePlan.participant.role.coding",
                                "text": "code:",
                                "type": "open-choice",
                                "repeats": true
                            },
                            {
                                "linkId": "CarePlan.participant.role.text",
                                "text": "text:",
                                "type": "string"
                            }
                        ]
                    },
                    {
                        "extension": [
                            {
                                "url": "http://hl7.org/fhir/Profile/questionnaire-extensions#flyover",
                                "valueString": "The specific person or organization who is participating/expected to participate in the care plan."
                            }
                        ],
                        "linkId": "CarePlan.participant.member",
                        "text": "Who is involved",
                        "required": true,
                        "question": [
                            {
                                "linkId": "CarePlan.participant.member._type",
                                "text": "type",
                                "type": "choice",
                                "options": {
                                    "reference": "#vs1"
                                },
                                "group": [
                                    {
                                        "extension": [
                                            {
                                                "url": "http://www.healthintersections.com.au/fhir/Profile/metadata#type",
                                                "valueString": "ResourceReference"
                                            },
                                            {
                                                "url": "http://www.healthintersections.com.au/fhir/Profile/metadata#reference",
                                                "valueString": "/Practitioner?subject=$subj&patient=$subj&encounter=$encounter"
                                            }
                                        ],
                                        "linkId": "CarePlan.participant.member._Practitioner",
                                        "question": [
                                            {
                                                "linkId": "CarePlan.participant.member._Practitioner.value",
                                                "text": "Practitioner",
                                                "type": "reference"
                                            }
                                        ]
                                    },
                                    {
                                        "extension": [
                                            {
                                                "url": "http://www.healthintersections.com.au/fhir/Profile/metadata#type",
                                                "valueString": "ResourceReference"
                                            },
                                            {
                                                "url": "http://www.healthintersections.com.au/fhir/Profile/metadata#reference",
                                                "valueString": "/RelatedPerson?subject=$subj&patient=$subj&encounter=$encounter"
                                            }
                                        ],
                                        "linkId": "CarePlan.participant.member._RelatedPerson",
                                        "question": [
                                            {
                                                "linkId": "CarePlan.participant.member._RelatedPerson.value",
                                                "text": "RelatedPerson",
                                                "type": "reference"
                                            }
                                        ]
                                    },
                                    {
                                        "extension": [
                                            {
                                                "url": "http://www.healthintersections.com.au/fhir/Profile/metadata#type",
                                                "valueString": "ResourceReference"
                                            },
                                            {
                                                "url": "http://www.healthintersections.com.au/fhir/Profile/metadata#reference",
                                                "valueString": "/Patient?subject=$subj&patient=$subj&encounter=$encounter"
                                            }
                                        ],
                                        "linkId": "CarePlan.participant.member._Patient",
                                        "question": [
                                            {
                                                "linkId": "CarePlan.participant.member._Patient.value",
                                                "text": "Patient",
                                                "type": "reference"
                                            }
                                        ]
                                    },
                                    {
                                        "extension": [
                                            {
                                                "url": "http://www.healthintersections.com.au/fhir/Profile/metadata#type",
                                                "valueString": "ResourceReference"
                                            },
                                            {
                                                "url": "http://www.healthintersections.com.au/fhir/Profile/metadata#reference",
                                                "valueString": "/Organization?subject=$subj&patient=$subj&encounter=$encounter"
                                            }
                                        ],
                                        "linkId": "CarePlan.participant.member._Organization",
                                        "question": [
                                            {
                                                "linkId": "CarePlan.participant.member._Organization.value",
                                                "text": "Organization",
                                                "type": "reference"
                                            }
                                        ]
                                    }
                                ]
                            }
                        ]
                    }
                ]
            },
            {
                "extension": [
                    {
                        "url": "http://hl7.org/fhir/Profile/questionnaire-extensions#flyover",
                        "valueString": "Describes the intended objective(s) of carrying out the Care Plan."
                    }
                ],
                "linkId": "CarePlan.goal",
                "title": "Desired outcome of plan",
                "text": "Goal can be achieving a particular change or merely maintaining a current state or even slowing a decline.",
                "repeats": true,
                "group": [
                    {
                        "extension": [
                            {
                                "url": "http://hl7.org/fhir/Profile/questionnaire-extensions#flyover",
                                "valueString": "Human-readable description of a specific desired objective of the care plan. null"
                            },
                            {
                                "url": "http://www.healthintersections.com.au/fhir/Profile/metadata#type",
                                "valueString": "string"
                            }
                        ],
                        "linkId": "CarePlan.goal.description",
                        "required": true,
                        "question": [
                            {
                                "linkId": "CarePlan.goal.description.value",
                                "text": "What's the desired outcome?",
                                "type": "string"
                            }
                        ]
                    },
                    {
                        "extension": [
                            {
                                "url": "http://hl7.org/fhir/Profile/questionnaire-extensions#flyover",
                                "valueString": "Indicates whether the goal has been reached and is still considered relevant. null"
                            },
                            {
                                "url": "http://www.healthintersections.com.au/fhir/Profile/metadata#type",
                                "valueString": "code"
                            }
                        ],
                        "linkId": "CarePlan.goal.status",
                        "text": "in progress | achieved | sustaining | cancelled",
                        "question": [
                            {
                                "linkId": "CarePlan.goal.status.value",
                                "text": "Status",
                                "type": "choice",
                                "options": {
                                    "reference": "http://hl7.org/fhir/vs/care-plan-goal-status"
                                }
                            }
                        ]
                    },
                    {
                        "extension": [
                            {
                                "url": "http://hl7.org/fhir/Profile/questionnaire-extensions#flyover",
                                "valueString": "Any comments related to the goal."
                            },
                            {
                                "url": "http://www.healthintersections.com.au/fhir/Profile/metadata#type",
                                "valueString": "string"
                            }
                        ],
                        "linkId": "CarePlan.goal.notes",
                        "question": [
                            {
                                "linkId": "CarePlan.goal.notes.value",
                                "text": "Comments about the goal",
                                "type": "string"
                            }
                        ]
                    },
                    {
                        "extension": [
                            {
                                "url": "http://hl7.org/fhir/Profile/questionnaire-extensions#flyover",
                                "valueString": "The identified conditions that this goal relates to - the condition that caused it to be created, or that it is intended to address."
                            },
                            {
                                "url": "http://www.healthintersections.com.au/fhir/Profile/metadata#type",
                                "valueString": "ResourceReference"
                            },
                            {
                                "url": "http://www.healthintersections.com.au/fhir/Profile/metadata#reference",
                                "valueString": "/Condition?subject=$subj&patient=$subj&encounter=$encounter"
                            }
                        ],
                        "linkId": "CarePlan.goal.concern",
                        "repeats": true,
                        "question": [
                            {
                                "linkId": "CarePlan.goal.concern.value",
                                "text": "Health issues this goal addresses",
                                "type": "reference"
                            }
                        ]
                    }
                ]
            },
            {
                "extension": [
                    {
                        "url": "http://hl7.org/fhir/Profile/questionnaire-extensions#flyover",
                        "valueString": "Identifies a planned action to occur as part of the plan.  For example, a medication to be used, lab tests to perform, self-monitoring, education, etc."
                    }
                ],
                "linkId": "CarePlan.activity",
                "title": "Action to occur as part of plan",
                "repeats": true,
                "group": [
                    {
                        "extension": [
                            {
                                "url": "http://hl7.org/fhir/Profile/questionnaire-extensions#flyover",
                                "valueString": "Internal reference that identifies the goals that this activity is intended to contribute towards meeting. null"
                            }
                        ],
                        "linkId": "CarePlan.activity.goal",
                        "text": "Goals this activity relates to",
                        "repeats": true
                    },
                    {
                        "extension": [
                            {
                                "url": "http://hl7.org/fhir/Profile/questionnaire-extensions#flyover",
                                "valueString": "Identifies what progress is being made for the specific activity."
                            },
                            {
                                "url": "http://www.healthintersections.com.au/fhir/Profile/metadata#type",
                                "valueString": "code"
                            }
                        ],
                        "linkId": "CarePlan.activity.status",
                        "text": "not started | scheduled | in progress | on hold | completed | cancelled",
                        "question": [
                            {
                                "linkId": "CarePlan.activity.status.value",
                                "text": "Status",
                                "type": "choice",
                                "options": {
                                    "reference": "http://hl7.org/fhir/vs/care-plan-activity-status"
                                }
                            }
                        ]
                    },
                    {
                        "extension": [
                            {
                                "url": "http://hl7.org/fhir/Profile/questionnaire-extensions#flyover",
                                "valueString": "If true, indicates that the described activity is one that must NOT be engaged in when following the plan. null"
                            },
                            {
                                "url": "http://www.healthintersections.com.au/fhir/Profile/metadata#type",
                                "valueString": "boolean"
                            }
                        ],
                        "linkId": "CarePlan.activity.prohibited",
                        "required": true,
                        "question": [
                            {
                                "linkId": "CarePlan.activity.prohibited.value",
                                "text": "Do NOT do",
                                "type": "boolean"
                            }
                        ]
                    },
                    {
                        "extension": [
                            {
                                "url": "http://hl7.org/fhir/Profile/questionnaire-extensions#flyover",
                                "valueString": "Resources that describe follow-on actions resulting from the plan, such as drug prescriptions, encounter records, appointments, etc. null"
                            },
                            {
                                "url": "http://www.healthintersections.com.au/fhir/Profile/metadata#type",
                                "valueString": "ResourceReference"
                            },
                            {
                                "url": "http://www.healthintersections.com.au/fhir/Profile/metadata#reference",
                                "valueString": "/_search?subject=$subj&patient=$subj&encounter=$encounter"
                            }
                        ],
                        "linkId": "CarePlan.activity.actionResulting",
                        "repeats": true,
                        "question": [
                            {
                                "linkId": "CarePlan.activity.actionResulting.value",
                                "text": "Appointments, orders, etc.",
                                "type": "reference"
                            }
                        ]
                    },
                    {
                        "extension": [
                            {
                                "url": "http://hl7.org/fhir/Profile/questionnaire-extensions#flyover",
                                "valueString": "Notes about the execution of the activity."
                            },
                            {
                                "url": "http://www.healthintersections.com.au/fhir/Profile/metadata#type",
                                "valueString": "string"
                            }
                        ],
                        "linkId": "CarePlan.activity.notes",
                        "question": [
                            {
                                "linkId": "CarePlan.activity.notes.value",
                                "text": "Comments about the activity",
                                "type": "string"
                            }
                        ]
                    },
                    {
                        "extension": [
                            {
                                "url": "http://hl7.org/fhir/Profile/questionnaire-extensions#flyover",
                                "valueString": "The details of the proposed activity represented in a specific resource. null"
                            }
                        ],
                        "linkId": "CarePlan.activity.detail",
                        "text": "Activity details defined in specific resource",
                        "question": [
                            {
                                "linkId": "CarePlan.activity.detail._type",
                                "text": "type",
                                "type": "choice",
                                "options": {
                                    "reference": "#vs2"
                                },
                                "group": [
                                    {
                                        "extension": [
                                            {
                                                "url": "http://www.healthintersections.com.au/fhir/Profile/metadata#type",
                                                "valueString": "ResourceReference"
                                            },
                                            {
                                                "url": "http://www.healthintersections.com.au/fhir/Profile/metadata#reference",
                                                "valueString": "/Procedure?subject=$subj&patient=$subj&encounter=$encounter"
                                            }
                                        ],
                                        "linkId": "CarePlan.activity.detail._Procedure",
                                        "question": [
                                            {
                                                "linkId": "CarePlan.activity.detail._Procedure.value",
                                                "text": "Procedure",
                                                "type": "reference"
                                            }
                                        ]
                                    },
                                    {
                                        "extension": [
                                            {
                                                "url": "http://www.healthintersections.com.au/fhir/Profile/metadata#type",
                                                "valueString": "ResourceReference"
                                            },
                                            {
                                                "url": "http://www.healthintersections.com.au/fhir/Profile/metadata#reference",
                                                "valueString": "/MedicationPrescription?subject=$subj&patient=$subj&encounter=$encounter"
                                            }
                                        ],
                                        "linkId": "CarePlan.activity.detail._MedicationPrescription",
                                        "question": [
                                            {
                                                "linkId": "CarePlan.activity.detail._MedicationPrescription.value",
                                                "text": "MedicationPrescription",
                                                "type": "reference"
                                            }
                                        ]
                                    },
                                    {
                                        "extension": [
                                            {
                                                "url": "http://www.healthintersections.com.au/fhir/Profile/metadata#type",
                                                "valueString": "ResourceReference"
                                            },
                                            {
                                                "url": "http://www.healthintersections.com.au/fhir/Profile/metadata#reference",
                                                "valueString": "/DiagnosticOrder?subject=$subj&patient=$subj&encounter=$encounter"
                                            }
                                        ],
                                        "linkId": "CarePlan.activity.detail._DiagnosticOrder",
                                        "question": [
                                            {
                                                "linkId": "CarePlan.activity.detail._DiagnosticOrder.value",
                                                "text": "DiagnosticOrder",
                                                "type": "reference"
                                            }
                                        ]
                                    },
                                    {
                                        "extension": [
                                            {
                                                "url": "http://www.healthintersections.com.au/fhir/Profile/metadata#type",
                                                "valueString": "ResourceReference"
                                            },
                                            {
                                                "url": "http://www.healthintersections.com.au/fhir/Profile/metadata#reference",
                                                "valueString": "/Encounter?subject=$subj&patient=$subj&encounter=$encounter"
                                            }
                                        ],
                                        "linkId": "CarePlan.activity.detail._Encounter",
                                        "question": [
                                            {
                                                "linkId": "CarePlan.activity.detail._Encounter.value",
                                                "text": "Encounter",
                                                "type": "reference"
                                            }
                                        ]
                                    },
                                    {
                                        "extension": [
                                            {
                                                "url": "http://www.healthintersections.com.au/fhir/Profile/metadata#type",
                                                "valueString": "ResourceReference"
                                            },
                                            {
                                                "url": "http://www.healthintersections.com.au/fhir/Profile/metadata#reference",
                                                "valueString": "/Supply?subject=$subj&patient=$subj&encounter=$encounter"
                                            }
                                        ],
                                        "linkId": "CarePlan.activity.detail._Supply",
                                        "question": [
                                            {
                                                "linkId": "CarePlan.activity.detail._Supply.value",
                                                "text": "Supply",
                                                "type": "reference"
                                            }
                                        ]
                                    }
                                ]
                            }
                        ]
                    },
                    {
                        "extension": [
                            {
                                "url": "http://hl7.org/fhir/Profile/questionnaire-extensions#flyover",
                                "valueString": "A simple summary of details suitable for a general care plan system (e.g. form driven) that doesn't know about specific resources such as procedure etc."
                            }
                        ],
                        "linkId": "CarePlan.activity.simple",
                        "title": "Activity details summarised here",
                        "group": [
                            {
                                "extension": [
                                    {
                                        "url": "http://hl7.org/fhir/Profile/questionnaire-extensions#flyover",
                                        "valueString": "High-level categorization of the type of activity in a care plan. null"
                                    },
                                    {
                                        "url": "http://www.healthintersections.com.au/fhir/Profile/metadata#type",
                                        "valueString": "code"
                                    }
                                ],
                                "linkId": "CarePlan.activity.simple.category",
                                "text": "diet | drug | encounter | observation | procedure | supply | other",
                                "required": true,
                                "question": [
                                    {
                                        "linkId": "CarePlan.activity.simple.category.value",
                                        "text": "Category",
                                        "type": "choice",
                                        "options": {
                                            "reference": "http://hl7.org/fhir/vs/care-plan-activity-category"
                                        }
                                    }
                                ]
                            },
                            {
                                "extension": [
                                    {
                                        "url": "http://hl7.org/fhir/Profile/questionnaire-extensions#flyover",
                                        "valueString": "Detailed description of the type of activity.  E.g. What lab test, what procedure, what kind of encounter."
                                    },
                                    {
                                        "url": "http://www.healthintersections.com.au/fhir/Profile/metadata#type",
                                        "valueString": "CodeableConcept"
                                    }
                                ],
                                "linkId": "CarePlan.activity.simple.code",
                                "text": "Detail type of activity",
                                "question": [
                                    {
                                        "linkId": "CarePlan.activity.simple.code.coding",
                                        "text": "code:",
                                        "type": "open-choice",
                                        "repeats": true
                                    },
                                    {
                                        "linkId": "CarePlan.activity.simple.code.text",
                                        "text": "text:",
                                        "type": "string"
                                    }
                                ]
                            },
                            {
                                "extension": [
                                    {
                                        "url": "http://hl7.org/fhir/Profile/questionnaire-extensions#flyover",
                                        "valueString": "The period, timing or frequency upon which the described activity is to occur. null"
                                    }
                                ],
                                "linkId": "CarePlan.activity.simple.timing[x]",
                                "text": "When activity is to occur",
                                "question": [
                                    {
                                        "linkId": "CarePlan.activity.simple.timing[x]._type",
                                        "text": "type",
                                        "type": "choice",
                                        "options": {
                                            "reference": "#vs3"
                                        },
                                        "group": [
                                            {
                                                "extension": [
                                                    {
                                                        "url": "http://www.healthintersections.com.au/fhir/Profile/metadata#type",
                                                        "valueString": "Schedule"
                                                    }
                                                ],
                                                "linkId": "CarePlan.activity.simple.timing[x]._Schedule",
                                                "text": "Schedule"
                                            },
                                            {
                                                "extension": [
                                                    {
                                                        "url": "http://www.healthintersections.com.au/fhir/Profile/metadata#type",
                                                        "valueString": "Period"
                                                    }
                                                ],
                                                "linkId": "CarePlan.activity.simple.timing[x]._Period",
                                                "text": "Period",
                                                "question": [
                                                    {
                                                        "linkId": "CarePlan.activity.simple.timing[x]._Period.low",
                                                        "text": "start:",
                                                        "type": "dateTime"
                                                    },
                                                    {
                                                        "linkId": "CarePlan.activity.simple.timing[x]._Period.end",
                                                        "text": "end:",
                                                        "type": "dateTime"
                                                    }
                                                ]
                                            },
                                            {
                                                "extension": [
                                                    {
                                                        "url": "http://www.healthintersections.com.au/fhir/Profile/metadata#type",
                                                        "valueString": "string"
                                                    }
                                                ],
                                                "linkId": "CarePlan.activity.simple.timing[x]._string",
                                                "question": [
                                                    {
                                                        "linkId": "CarePlan.activity.simple.timing[x]._string.value",
                                                        "text": "string",
                                                        "type": "string"
                                                    }
                                                ]
                                            }
                                        ]
                                    }
                                ]
                            },
                            {
                                "extension": [
                                    {
                                        "url": "http://hl7.org/fhir/Profile/questionnaire-extensions#flyover",
                                        "valueString": "Identifies the facility where the activity will occur.  E.g. home, hospital, specific clinic, etc."
                                    },
                                    {
                                        "url": "http://www.healthintersections.com.au/fhir/Profile/metadata#type",
                                        "valueString": "ResourceReference"
                                    },
                                    {
                                        "url": "http://www.healthintersections.com.au/fhir/Profile/metadata#reference",
                                        "valueString": "/Location?subject=$subj&patient=$subj&encounter=$encounter"
                                    }
                                ],
                                "linkId": "CarePlan.activity.simple.location",
                                "question": [
                                    {
                                        "linkId": "CarePlan.activity.simple.location.value",
                                        "text": "Where it should happen",
                                        "type": "reference"
                                    }
                                ]
                            },
                            {
                                "extension": [
                                    {
                                        "url": "http://hl7.org/fhir/Profile/questionnaire-extensions#flyover",
                                        "valueString": "Identifies who's expected to be involved in the activity."
                                    }
                                ],
                                "linkId": "CarePlan.activity.simple.performer",
                                "text": "Who's responsible?",
                                "repeats": true,
                                "question": [
                                    {
                                        "linkId": "CarePlan.activity.simple.performer._type",
                                        "text": "type",
                                        "type": "choice",
                                        "options": {
                                            "reference": "#vs4"
                                        },
                                        "group": [
                                            {
                                                "extension": [
                                                    {
                                                        "url": "http://www.healthintersections.com.au/fhir/Profile/metadata#type",
                                                        "valueString": "ResourceReference"
                                                    },
                                                    {
                                                        "url": "http://www.healthintersections.com.au/fhir/Profile/metadata#reference",
                                                        "valueString": "/Practitioner?subject=$subj&patient=$subj&encounter=$encounter"
                                                    }
                                                ],
                                                "linkId": "CarePlan.activity.simple.performer._Practitioner",
                                                "question": [
                                                    {
                                                        "linkId": "CarePlan.activity.simple.performer._Practitioner.value",
                                                        "text": "Practitioner",
                                                        "type": "reference"
                                                    }
                                                ]
                                            },
                                            {
                                                "extension": [
                                                    {
                                                        "url": "http://www.healthintersections.com.au/fhir/Profile/metadata#type",
                                                        "valueString": "ResourceReference"
                                                    },
                                                    {
                                                        "url": "http://www.healthintersections.com.au/fhir/Profile/metadata#reference",
                                                        "valueString": "/Organization?subject=$subj&patient=$subj&encounter=$encounter"
                                                    }
                                                ],
                                                "linkId": "CarePlan.activity.simple.performer._Organization",
                                                "question": [
                                                    {
                                                        "linkId": "CarePlan.activity.simple.performer._Organization.value",
                                                        "text": "Organization",
                                                        "type": "reference"
                                                    }
                                                ]
                                            },
                                            {
                                                "extension": [
                                                    {
                                                        "url": "http://www.healthintersections.com.au/fhir/Profile/metadata#type",
                                                        "valueString": "ResourceReference"
                                                    },
                                                    {
                                                        "url": "http://www.healthintersections.com.au/fhir/Profile/metadata#reference",
                                                        "valueString": "/RelatedPerson?subject=$subj&patient=$subj&encounter=$encounter"
                                                    }
                                                ],
                                                "linkId": "CarePlan.activity.simple.performer._RelatedPerson",
                                                "question": [
                                                    {
                                                        "linkId": "CarePlan.activity.simple.performer._RelatedPerson.value",
                                                        "text": "RelatedPerson",
                                                        "type": "reference"
                                                    }
                                                ]
                                            },
                                            {
                                                "extension": [
                                                    {
                                                        "url": "http://www.healthintersections.com.au/fhir/Profile/metadata#type",
                                                        "valueString": "ResourceReference"
                                                    },
                                                    {
                                                        "url": "http://www.healthintersections.com.au/fhir/Profile/metadata#reference",
                                                        "valueString": "/Patient?subject=$subj&patient=$subj&encounter=$encounter"
                                                    }
                                                ],
                                                "linkId": "CarePlan.activity.simple.performer._Patient",
                                                "question": [
                                                    {
                                                        "linkId": "CarePlan.activity.simple.performer._Patient.value",
                                                        "text": "Patient",
                                                        "type": "reference"
                                                    }
                                                ]
                                            }
                                        ]
                                    }
                                ]
                            },
                            {
                                "extension": [
                                    {
                                        "url": "http://hl7.org/fhir/Profile/questionnaire-extensions#flyover",
                                        "valueString": "Identifies the food, drug or other product being consumed or supplied in the activity. null"
                                    }
                                ],
                                "linkId": "CarePlan.activity.simple.product",
                                "text": "What's administered/supplied",
                                "question": [
                                    {
                                        "linkId": "CarePlan.activity.simple.product._type",
                                        "text": "type",
                                        "type": "choice",
                                        "options": {
                                            "reference": "#vs5"
                                        },
                                        "group": [
                                            {
                                                "extension": [
                                                    {
                                                        "url": "http://www.healthintersections.com.au/fhir/Profile/metadata#type",
                                                        "valueString": "ResourceReference"
                                                    },
                                                    {
                                                        "url": "http://www.healthintersections.com.au/fhir/Profile/metadata#reference",
                                                        "valueString": "/Medication?subject=$subj&patient=$subj&encounter=$encounter"
                                                    }
                                                ],
                                                "linkId": "CarePlan.activity.simple.product._Medication",
                                                "question": [
                                                    {
                                                        "linkId": "CarePlan.activity.simple.product._Medication.value",
                                                        "text": "Medication",
                                                        "type": "reference"
                                                    }
                                                ]
                                            },
                                            {
                                                "extension": [
                                                    {
                                                        "url": "http://www.healthintersections.com.au/fhir/Profile/metadata#type",
                                                        "valueString": "ResourceReference"
                                                    },
                                                    {
                                                        "url": "http://www.healthintersections.com.au/fhir/Profile/metadata#reference",
                                                        "valueString": "/Substance?subject=$subj&patient=$subj&encounter=$encounter"
                                                    }
                                                ],
                                                "linkId": "CarePlan.activity.simple.product._Substance",
                                                "question": [
                                                    {
                                                        "linkId": "CarePlan.activity.simple.product._Substance.value",
                                                        "text": "Substance",
                                                        "type": "reference"
                                                    }
                                                ]
                                            }
                                        ]
                                    }
                                ]
                            },
                            {
                                "extension": [
                                    {
                                        "url": "http://hl7.org/fhir/Profile/questionnaire-extensions#flyover",
                                        "valueString": "Identifies the quantity expected to be consumed in a given day. null"
                                    },
                                    {
                                        "url": "http://www.healthintersections.com.au/fhir/Profile/metadata#type",
                                        "valueString": "Quantity"
                                    }
                                ],
                                "linkId": "CarePlan.activity.simple.dailyAmount",
                                "text": "How much consumed/day?",
                                "question": [
                                    {
                                        "linkId": "CarePlan.activity.simple.dailyAmount.comparator",
                                        "text": "comp:",
                                        "type": "choice",
                                        "options": {
                                            "reference": "http://hl7.org/fhir/vs/quantity-comparator"
                                        }
                                    },
                                    {
                                        "linkId": "CarePlan.activity.simple.dailyAmount.value",
                                        "text": "value:",
                                        "type": "decimal"
                                    },
                                    {
                                        "linkId": "CarePlan.activity.simple.dailyAmount.units",
                                        "text": "units:",
                                        "type": "string"
                                    }
                                ]
                            },
                            {
                                "extension": [
                                    {
                                        "url": "http://hl7.org/fhir/Profile/questionnaire-extensions#flyover",
                                        "valueString": "Identifies the quantity expected to be supplied. null"
                                    },
                                    {
                                        "url": "http://www.healthintersections.com.au/fhir/Profile/metadata#type",
                                        "valueString": "Quantity"
                                    }
                                ],
                                "linkId": "CarePlan.activity.simple.quantity",
                                "text": "How much is administered/supplied/consumed",
                                "question": [
                                    {
                                        "linkId": "CarePlan.activity.simple.quantity.comparator",
                                        "text": "comp:",
                                        "type": "choice",
                                        "options": {
                                            "reference": "http://hl7.org/fhir/vs/quantity-comparator"
                                        }
                                    },
                                    {
                                        "linkId": "CarePlan.activity.simple.quantity.value",
                                        "text": "value:",
                                        "type": "decimal"
                                    },
                                    {
                                        "linkId": "CarePlan.activity.simple.quantity.units",
                                        "text": "units:",
                                        "type": "string"
                                    }
                                ]
                            },
                            {
                                "extension": [
                                    {
                                        "url": "http://hl7.org/fhir/Profile/questionnaire-extensions#flyover",
                                        "valueString": "This provides a textual description of constraints on the activity occurrence, including relation to other activities.  It may also include objectives, pre-conditions and end-conditions.  Finally, it may convey specifics about the activity such as body site, method, route, etc. null"
                                    },
                                    {
                                        "url": "http://www.healthintersections.com.au/fhir/Profile/metadata#type",
                                        "valueString": "string"
                                    }
                                ],
                                "linkId": "CarePlan.activity.simple.details",
                                "question": [
                                    {
                                        "linkId": "CarePlan.activity.simple.details.value",
                                        "text": "Extra info on activity occurrence",
                                        "type": "string"
                                    }
                                ]
                            }
                        ]
                    }
                ]
            },
            {
                "extension": [
                    {
                        "url": "http://hl7.org/fhir/Profile/questionnaire-extensions#flyover",
                        "valueString": "General notes about the care plan not covered elsewhere. null"
                    },
                    {
                        "url": "http://www.healthintersections.com.au/fhir/Profile/metadata#type",
                        "valueString": "string"
                    }
                ],
                "linkId": "CarePlan.notes",
                "question": [
                    {
                        "linkId": "CarePlan.notes.value",
                        "text": "Comments about the plan",
                        "type": "string"
                    }
                ]
            }
        ]
    }
}