{
    "resourceType": "Questionnaire",
    "text": {
        "status": "generated",
        "div": "<div><p><b>Generated Narrative with Details</b></p><p><b>status</b>: draft</p><p><b>date</b>: 2-Sep 2014 5:51</p><p><b>publisher</b>: HL7 FHIR Standard</p><blockquote><p><b>group</b></p><p><b>linkId</b>: Composition</p><p><b>title</b>: A set of resources composed into a single coherent clinical statement with clinical attestation</p><p><b>text</b>: While the focus of this specification is on patient-specific clinical statements, this resource can also apply to other healthcare-related statements such as study protocol designs, healthcare invoices and other activities that are not necessarily patient-specific or clinical.</p><p><b>required</b>: true</p><blockquote><p><b>group</b></p></blockquote><blockquote><p><b>group</b></p></blockquote><blockquote><p><b>group</b></p></blockquote><blockquote><p><b>group</b></p></blockquote><blockquote><p><b>group</b></p></blockquote><blockquote><p><b>group</b></p></blockquote><blockquote><p><b>group</b></p></blockquote><blockquote><p><b>group</b></p></blockquote><blockquote><p><b>group</b></p></blockquote><blockquote><p><b>group</b></p></blockquote><blockquote><p><b>group</b></p></blockquote><blockquote><p><b>group</b></p></blockquote><blockquote><p><b>group</b></p></blockquote><blockquote><p><b>group</b></p></blockquote></blockquote></div>"
    },
    "contained": [
        {
            "resourceType": "ValueSet",
            "id": "vs1",
            "name": "Type options for Composition.subject",
            "description": "Type options for Composition.subject",
            "status": "active",
            "define": {
                "system": "urn:uuid:b16168e9-07bf-40dd-8d22-572b82584bc9",
                "concept": [
                    {
                        "code": "Patient",
                        "display": "Patient"
                    },
                    {
                        "code": "Practitioner",
                        "display": "Practitioner"
                    },
                    {
                        "code": "Group",
                        "display": "Group"
                    },
                    {
                        "code": "Device",
                        "display": "Device"
                    },
                    {
                        "code": "Location",
                        "display": "Location"
                    }
                ]
            }
        },
        {
            "resourceType": "ValueSet",
            "id": "vs2",
            "name": "Type options for Composition.author",
            "description": "Type options for Composition.author",
            "status": "active",
            "define": {
                "system": "urn:uuid:e0b6f4ec-f978-420f-aae6-9d581521ff18",
                "concept": [
                    {
                        "code": "Practitioner",
                        "display": "Practitioner"
                    },
                    {
                        "code": "Device",
                        "display": "Device"
                    },
                    {
                        "code": "Patient",
                        "display": "Patient"
                    },
                    {
                        "code": "RelatedPerson",
                        "display": "RelatedPerson"
                    }
                ]
            }
        },
        {
            "resourceType": "ValueSet",
            "id": "vs3",
            "name": "Type options for Composition.attester.party",
            "description": "Type options for Composition.attester.party",
            "status": "active",
            "define": {
                "system": "urn:uuid:5c6cee12-d0fb-449c-9f3d-4d7d58d80d4e",
                "concept": [
                    {
                        "code": "Patient",
                        "display": "Patient"
                    },
                    {
                        "code": "Practitioner",
                        "display": "Practitioner"
                    },
                    {
                        "code": "Organization",
                        "display": "Organization"
                    }
                ]
            }
        },
        {
            "resourceType": "ValueSet",
            "id": "vs4",
            "name": "Type options for Composition.section.subject",
            "description": "Type options for Composition.section.subject",
            "status": "active",
            "define": {
                "system": "urn:uuid:0c467cf9-5f07-43b0-b08b-db0be73e03f1",
                "concept": [
                    {
                        "code": "Patient",
                        "display": "Patient"
                    },
                    {
                        "code": "Group",
                        "display": "Group"
                    },
                    {
                        "code": "Device",
                        "display": "Device"
                    }
                ]
            }
        }
    ],
    "status": "draft",
    "date": "2014-09-02T05:51:24.789-00:00",
    "publisher": "HL7 FHIR Standard",
    "group": {
        "extension": [
            {
                "url": "http://hl7.org/fhir/Profile/questionnaire-extensions#flyover",
                "valueString": "A set of healthcare-related information that is assembled together into a single logical document that provides a single coherent statement of meaning, establishes its own context and that has clinical attestation with regard to who is making the statement."
            }
        ],
        "linkId": "Composition",
        "title": "A set of resources composed into a single coherent clinical statement with clinical attestation",
        "text": "While the focus of this specification is on patient-specific clinical statements, this resource can also apply to other healthcare-related statements such as study protocol designs, healthcare invoices and other activities that are not necessarily patient-specific or clinical.",
        "required": true,
        "group": [
            {
                "extension": [
                    {
                        "url": "http://hl7.org/fhir/Profile/questionnaire-extensions#flyover",
                        "valueString": "Logical Identifier for the composition, assigned when created. This identifier stays constant as the composition is changed over time."
                    },
                    {
                        "url": "http://www.healthintersections.com.au/fhir/Profile/metadata#type",
                        "valueString": "Identifier"
                    }
                ],
                "linkId": "Composition.identifier",
                "text": "Logical identifier of composition (version-independent)",
                "question": [
                    {
                        "linkId": "Composition.identifier.label",
                        "text": "label:",
                        "type": "string"
                    },
                    {
                        "linkId": "Composition.identifier.system",
                        "text": "system:",
                        "type": "string"
                    },
                    {
                        "linkId": "Composition.identifier.value",
                        "text": "value:",
                        "type": "string"
                    }
                ]
            },
            {
                "extension": [
                    {
                        "url": "http://hl7.org/fhir/Profile/questionnaire-extensions#flyover",
                        "valueString": "The composition editing time, when the composition was last logically changed by the author."
                    },
                    {
                        "url": "http://www.healthintersections.com.au/fhir/Profile/metadata#type",
                        "valueString": "datetime"
                    }
                ],
                "linkId": "Composition.date",
                "required": true,
                "question": [
                    {
                        "linkId": "Composition.date.value",
                        "text": "Composition editing time",
                        "type": "dateTime"
                    }
                ]
            },
            {
                "extension": [
                    {
                        "url": "http://hl7.org/fhir/Profile/questionnaire-extensions#flyover",
                        "valueString": "Specifies the particular kind of composition (e.g. History and Physical, Discharge Summary, Progress Note). This usually equates to the purpose of making the composition. null"
                    },
                    {
                        "url": "http://www.healthintersections.com.au/fhir/Profile/metadata#type",
                        "valueString": "CodeableConcept"
                    }
                ],
                "linkId": "Composition.type",
                "text": "Kind of composition (LOINC if possible)",
                "required": true,
                "question": [
                    {
                        "linkId": "Composition.type.coding",
                        "text": "code:",
                        "type": "open-choice",
                        "repeats": true,
                        "options": {
                            "reference": "http://hl7.org/fhir/vs/doc-codes"
                        }
                    },
                    {
                        "linkId": "Composition.type.text",
                        "text": "text:",
                        "type": "string"
                    }
                ]
            },
            {
                "extension": [
                    {
                        "url": "http://hl7.org/fhir/Profile/questionnaire-extensions#flyover",
                        "valueString": "A categorization for the type of the composition. This may be implied by or derived from the code specified in the Composition Type. null"
                    },
                    {
                        "url": "http://www.healthintersections.com.au/fhir/Profile/metadata#type",
                        "valueString": "CodeableConcept"
                    }
                ],
                "linkId": "Composition.class",
                "text": "Categorization of Composition",
                "question": [
                    {
                        "linkId": "Composition.class.coding",
                        "text": "code:",
                        "type": "open-choice",
                        "repeats": true,
                        "options": {
                            "reference": "http://hl7.org/fhir/vs/xds-typecodes"
                        }
                    },
                    {
                        "linkId": "Composition.class.text",
                        "text": "text:",
                        "type": "string"
                    }
                ]
            },
            {
                "extension": [
                    {
                        "url": "http://hl7.org/fhir/Profile/questionnaire-extensions#flyover",
                        "valueString": "Official human-readable label for the composition."
                    },
                    {
                        "url": "http://www.healthintersections.com.au/fhir/Profile/metadata#type",
                        "valueString": "string"
                    }
                ],
                "linkId": "Composition.title",
                "question": [
                    {
                        "linkId": "Composition.title.value",
                        "text": "Human Readable name/title",
                        "type": "string"
                    }
                ]
            },
            {
                "extension": [
                    {
                        "url": "http://hl7.org/fhir/Profile/questionnaire-extensions#flyover",
                        "valueString": "The workflow/clinical status of this composition. The status is a marker for the clinical standing of the document."
                    },
                    {
                        "url": "http://www.healthintersections.com.au/fhir/Profile/metadata#type",
                        "valueString": "code"
                    }
                ],
                "linkId": "Composition.status",
                "text": "preliminary | final | appended | amended | entered in error",
                "required": true,
                "question": [
                    {
                        "linkId": "Composition.status.value",
                        "text": "Status",
                        "type": "choice",
                        "options": {
                            "reference": "http://hl7.org/fhir/vs/composition-status"
                        }
                    }
                ]
            },
            {
                "extension": [
                    {
                        "url": "http://hl7.org/fhir/Profile/questionnaire-extensions#flyover",
                        "valueString": "The code specifying the level of confidentiality of the Composition."
                    },
                    {
                        "url": "http://www.healthintersections.com.au/fhir/Profile/metadata#type",
                        "valueString": "Coding"
                    }
                ],
                "linkId": "Composition.confidentiality",
                "text": "As defined by affinity domain",
                "required": true,
                "question": [
                    {
                        "linkId": "Composition.confidentiality.value",
                        "text": "Code:",
                        "type": "open-choice",
                        "options": {
                            "reference": "http://hl7.org/fhir/v3/vs/Confidentiality"
                        }
                    }
                ]
            },
            {
                "extension": [
                    {
                        "url": "http://hl7.org/fhir/Profile/questionnaire-extensions#flyover",
                        "valueString": "Who or what the composition is about. The composition can be about a person, (patient or healthcare practitioner), a device (I.e. machine) or even a group of subjects (such as a document about a herd of livestock, or a set of patients that share a common exposure)."
                    }
                ],
                "linkId": "Composition.subject",
                "text": "Who and/or what the composition is about",
                "required": true,
                "question": [
                    {
                        "linkId": "Composition.subject._type",
                        "text": "type",
                        "type": "choice",
                        "options": {
                            "reference": "#vs1"
                        },
                        "group": [
                            {
                                "extension": [
                                    {
                                        "url": "http://www.healthintersections.com.au/fhir/Profile/metadata#type",
                                        "valueString": "ResourceReference"
                                    },
                                    {
                                        "url": "http://www.healthintersections.com.au/fhir/Profile/metadata#reference",
                                        "valueString": "/Patient?subject=$subj&patient=$subj&encounter=$encounter"
                                    }
                                ],
                                "linkId": "Composition.subject._Patient",
                                "question": [
                                    {
                                        "linkId": "Composition.subject._Patient.value",
                                        "text": "Patient",
                                        "type": "reference"
                                    }
                                ]
                            },
                            {
                                "extension": [
                                    {
                                        "url": "http://www.healthintersections.com.au/fhir/Profile/metadata#type",
                                        "valueString": "ResourceReference"
                                    },
                                    {
                                        "url": "http://www.healthintersections.com.au/fhir/Profile/metadata#reference",
                                        "valueString": "/Practitioner?subject=$subj&patient=$subj&encounter=$encounter"
                                    }
                                ],
                                "linkId": "Composition.subject._Practitioner",
                                "question": [
                                    {
                                        "linkId": "Composition.subject._Practitioner.value",
                                        "text": "Practitioner",
                                        "type": "reference"
                                    }
                                ]
                            },
                            {
                                "extension": [
                                    {
                                        "url": "http://www.healthintersections.com.au/fhir/Profile/metadata#type",
                                        "valueString": "ResourceReference"
                                    },
                                    {
                                        "url": "http://www.healthintersections.com.au/fhir/Profile/metadata#reference",
                                        "valueString": "/Group?subject=$subj&patient=$subj&encounter=$encounter"
                                    }
                                ],
                                "linkId": "Composition.subject._Group",
                                "question": [
                                    {
                                        "linkId": "Composition.subject._Group.value",
                                        "text": "Group",
                                        "type": "reference"
                                    }
                                ]
                            },
                            {
                                "extension": [
                                    {
                                        "url": "http://www.healthintersections.com.au/fhir/Profile/metadata#type",
                                        "valueString": "ResourceReference"
                                    },
                                    {
                                        "url": "http://www.healthintersections.com.au/fhir/Profile/metadata#reference",
                                        "valueString": "/Device?subject=$subj&patient=$subj&encounter=$encounter"
                                    }
                                ],
                                "linkId": "Composition.subject._Device",
                                "question": [
                                    {
                                        "linkId": "Composition.subject._Device.value",
                                        "text": "Device",
                                        "type": "reference"
                                    }
                                ]
                            },
                            {
                                "extension": [
                                    {
                                        "url": "http://www.healthintersections.com.au/fhir/Profile/metadata#type",
                                        "valueString": "ResourceReference"
                                    },
                                    {
                                        "url": "http://www.healthintersections.com.au/fhir/Profile/metadata#reference",
                                        "valueString": "/Location?subject=$subj&patient=$subj&encounter=$encounter"
                                    }
                                ],
                                "linkId": "Composition.subject._Location",
                                "question": [
                                    {
                                        "linkId": "Composition.subject._Location.value",
                                        "text": "Location",
                                        "type": "reference"
                                    }
                                ]
                            }
                        ]
                    }
                ]
            },
            {
                "extension": [
                    {
                        "url": "http://hl7.org/fhir/Profile/questionnaire-extensions#flyover",
                        "valueString": "Identifies who is responsible for the information in the composition.  (Not necessarily who typed it in.). null"
                    }
                ],
                "linkId": "Composition.author",
                "text": "Who and/or what authored the composition",
                "required": true,
                "repeats": true,
                "question": [
                    {
                        "linkId": "Composition.author._type",
                        "text": "type",
                        "type": "choice",
                        "options": {
                            "reference": "#vs2"
                        },
                        "group": [
                            {
                                "extension": [
                                    {
                                        "url": "http://www.healthintersections.com.au/fhir/Profile/metadata#type",
                                        "valueString": "ResourceReference"
                                    },
                                    {
                                        "url": "http://www.healthintersections.com.au/fhir/Profile/metadata#reference",
                                        "valueString": "/Practitioner?subject=$subj&patient=$subj&encounter=$encounter"
                                    }
                                ],
                                "linkId": "Composition.author._Practitioner",
                                "question": [
                                    {
                                        "linkId": "Composition.author._Practitioner.value",
                                        "text": "Practitioner",
                                        "type": "reference"
                                    }
                                ]
                            },
                            {
                                "extension": [
                                    {
                                        "url": "http://www.healthintersections.com.au/fhir/Profile/metadata#type",
                                        "valueString": "ResourceReference"
                                    },
                                    {
                                        "url": "http://www.healthintersections.com.au/fhir/Profile/metadata#reference",
                                        "valueString": "/Device?subject=$subj&patient=$subj&encounter=$encounter"
                                    }
                                ],
                                "linkId": "Composition.author._Device",
                                "question": [
                                    {
                                        "linkId": "Composition.author._Device.value",
                                        "text": "Device",
                                        "type": "reference"
                                    }
                                ]
                            },
                            {
                                "extension": [
                                    {
                                        "url": "http://www.healthintersections.com.au/fhir/Profile/metadata#type",
                                        "valueString": "ResourceReference"
                                    },
                                    {
                                        "url": "http://www.healthintersections.com.au/fhir/Profile/metadata#reference",
                                        "valueString": "/Patient?subject=$subj&patient=$subj&encounter=$encounter"
                                    }
                                ],
                                "linkId": "Composition.author._Patient",
                                "question": [
                                    {
                                        "linkId": "Composition.author._Patient.value",
                                        "text": "Patient",
                                        "type": "reference"
                                    }
                                ]
                            },
                            {
                                "extension": [
                                    {
                                        "url": "http://www.healthintersections.com.au/fhir/Profile/metadata#type",
                                        "valueString": "ResourceReference"
                                    },
                                    {
                                        "url": "http://www.healthintersections.com.au/fhir/Profile/metadata#reference",
                                        "valueString": "/RelatedPerson?subject=$subj&patient=$subj&encounter=$encounter"
                                    }
                                ],
                                "linkId": "Composition.author._RelatedPerson",
                                "question": [
                                    {
                                        "linkId": "Composition.author._RelatedPerson.value",
                                        "text": "RelatedPerson",
                                        "type": "reference"
                                    }
                                ]
                            }
                        ]
                    }
                ]
            },
            {
                "extension": [
                    {
                        "url": "http://hl7.org/fhir/Profile/questionnaire-extensions#flyover",
                        "valueString": "A participant who has attested to the accuracy of the composition/document."
                    }
                ],
                "linkId": "Composition.attester",
                "title": "Attests to accuracy of composition",
                "text": "Only list each attester once.",
                "repeats": true,
                "group": [
                    {
                        "extension": [
                            {
                                "url": "http://hl7.org/fhir/Profile/questionnaire-extensions#flyover",
                                "valueString": "The type of attestation the authenticator offers."
                            },
                            {
                                "url": "http://www.healthintersections.com.au/fhir/Profile/metadata#type",
                                "valueString": "code"
                            }
                        ],
                        "linkId": "Composition.attester.mode",
                        "text": "personal | professional | legal | official",
                        "required": true,
                        "repeats": true,
                        "question": [
                            {
                                "linkId": "Composition.attester.mode.value",
                                "text": "Mode",
                                "type": "choice",
                                "options": {
                                    "reference": "http://hl7.org/fhir/vs/composition-attestation-mode"
                                }
                            }
                        ]
                    },
                    {
                        "extension": [
                            {
                                "url": "http://hl7.org/fhir/Profile/questionnaire-extensions#flyover",
                                "valueString": "When composition was attested by the party. null"
                            },
                            {
                                "url": "http://www.healthintersections.com.au/fhir/Profile/metadata#type",
                                "valueString": "datetime"
                            }
                        ],
                        "linkId": "Composition.attester.time",
                        "question": [
                            {
                                "linkId": "Composition.attester.time.value",
                                "text": "When composition attested",
                                "type": "dateTime"
                            }
                        ]
                    },
                    {
                        "extension": [
                            {
                                "url": "http://hl7.org/fhir/Profile/questionnaire-extensions#flyover",
                                "valueString": "Who attested the composition in the specified way. null"
                            }
                        ],
                        "linkId": "Composition.attester.party",
                        "text": "Who attested the composition",
                        "question": [
                            {
                                "linkId": "Composition.attester.party._type",
                                "text": "type",
                                "type": "choice",
                                "options": {
                                    "reference": "#vs3"
                                },
                                "group": [
                                    {
                                        "extension": [
                                            {
                                                "url": "http://www.healthintersections.com.au/fhir/Profile/metadata#type",
                                                "valueString": "ResourceReference"
                                            },
                                            {
                                                "url": "http://www.healthintersections.com.au/fhir/Profile/metadata#reference",
                                                "valueString": "/Patient?subject=$subj&patient=$subj&encounter=$encounter"
                                            }
                                        ],
                                        "linkId": "Composition.attester.party._Patient",
                                        "question": [
                                            {
                                                "linkId": "Composition.attester.party._Patient.value",
                                                "text": "Patient",
                                                "type": "reference"
                                            }
                                        ]
                                    },
                                    {
                                        "extension": [
                                            {
                                                "url": "http://www.healthintersections.com.au/fhir/Profile/metadata#type",
                                                "valueString": "ResourceReference"
                                            },
                                            {
                                                "url": "http://www.healthintersections.com.au/fhir/Profile/metadata#reference",
                                                "valueString": "/Practitioner?subject=$subj&patient=$subj&encounter=$encounter"
                                            }
                                        ],
                                        "linkId": "Composition.attester.party._Practitioner",
                                        "question": [
                                            {
                                                "linkId": "Composition.attester.party._Practitioner.value",
                                                "text": "Practitioner",
                                                "type": "reference"
                                            }
                                        ]
                                    },
                                    {
                                        "extension": [
                                            {
                                                "url": "http://www.healthintersections.com.au/fhir/Profile/metadata#type",
                                                "valueString": "ResourceReference"
                                            },
                                            {
                                                "url": "http://www.healthintersections.com.au/fhir/Profile/metadata#reference",
                                                "valueString": "/Organization?subject=$subj&patient=$subj&encounter=$encounter"
                                            }
                                        ],
                                        "linkId": "Composition.attester.party._Organization",
                                        "question": [
                                            {
                                                "linkId": "Composition.attester.party._Organization.value",
                                                "text": "Organization",
                                                "type": "reference"
                                            }
                                        ]
                                    }
                                ]
                            }
                        ]
                    }
                ]
            },
            {
                "extension": [
                    {
                        "url": "http://hl7.org/fhir/Profile/questionnaire-extensions#flyover",
                        "valueString": "Identifies the organization or group who is responsible for ongoing maintenance of and access to the composition/document information."
                    },
                    {
                        "url": "http://www.healthintersections.com.au/fhir/Profile/metadata#type",
                        "valueString": "ResourceReference"
                    },
                    {
                        "url": "http://www.healthintersections.com.au/fhir/Profile/metadata#reference",
                        "valueString": "/Organization?subject=$subj&patient=$subj&encounter=$encounter"
                    }
                ],
                "linkId": "Composition.custodian",
                "question": [
                    {
                        "linkId": "Composition.custodian.value",
                        "text": "Org which maintains the composition",
                        "type": "reference"
                    }
                ]
            },
            {
                "extension": [
                    {
                        "url": "http://hl7.org/fhir/Profile/questionnaire-extensions#flyover",
                        "valueString": "The main event/act/item, such as a colonoscopy or an appendectomy, being documented."
                    }
                ],
                "linkId": "Composition.event",
                "title": "The clinical event/act/item being documented",
                "text": "The event needs to be consistent with the type element, though can provide further information if desired.",
                "group": [
                    {
                        "extension": [
                            {
                                "url": "http://hl7.org/fhir/Profile/questionnaire-extensions#flyover",
                                "valueString": "This list of codes represents the main clinical acts, such as a colonoscopy or an appendectomy, being documented. In some cases, the event is inherent in the typeCode, such as a \"History and Physical Report\" in which the procedure being documented is necessarily a \"History and Physical\" act."
                            },
                            {
                                "url": "http://www.healthintersections.com.au/fhir/Profile/metadata#type",
                                "valueString": "CodeableConcept"
                            }
                        ],
                        "linkId": "Composition.event.code",
                        "text": "Code(s) that apply to the event being documented",
                        "repeats": true,
                        "question": [
                            {
                                "linkId": "Composition.event.code.coding",
                                "text": "code:",
                                "type": "open-choice",
                                "repeats": true,
                                "options": {
                                    "reference": "http://hl7.org/fhir/v3/vs/ActCode"
                                }
                            },
                            {
                                "linkId": "Composition.event.code.text",
                                "text": "text:",
                                "type": "string"
                            }
                        ]
                    },
                    {
                        "extension": [
                            {
                                "url": "http://hl7.org/fhir/Profile/questionnaire-extensions#flyover",
                                "valueString": "The period of time covered by the documentation. There is no assertion that the documentation is a complete representation for this period, only that it documents events during this time. null"
                            },
                            {
                                "url": "http://www.healthintersections.com.au/fhir/Profile/metadata#type",
                                "valueString": "Period"
                            }
                        ],
                        "linkId": "Composition.event.period",
                        "text": "The period covered by the documentation",
                        "question": [
                            {
                                "linkId": "Composition.event.period.low",
                                "text": "start:",
                                "type": "dateTime"
                            },
                            {
                                "linkId": "Composition.event.period.end",
                                "text": "end:",
                                "type": "dateTime"
                            }
                        ]
                    },
                    {
                        "extension": [
                            {
                                "url": "http://hl7.org/fhir/Profile/questionnaire-extensions#flyover",
                                "valueString": "Full details for the event(s) the composition/documentation consents. null"
                            },
                            {
                                "url": "http://www.healthintersections.com.au/fhir/Profile/metadata#type",
                                "valueString": "ResourceReference"
                            },
                            {
                                "url": "http://www.healthintersections.com.au/fhir/Profile/metadata#reference",
                                "valueString": "/_search?subject=$subj&patient=$subj&encounter=$encounter"
                            }
                        ],
                        "linkId": "Composition.event.detail",
                        "repeats": true,
                        "question": [
                            {
                                "linkId": "Composition.event.detail.value",
                                "text": "Full details for the event(s) the composition consents",
                                "type": "reference"
                            }
                        ]
                    }
                ]
            },
            {
                "extension": [
                    {
                        "url": "http://hl7.org/fhir/Profile/questionnaire-extensions#flyover",
                        "valueString": "Describes the clinical encounter or type of care this documentation is associated with. null"
                    },
                    {
                        "url": "http://www.healthintersections.com.au/fhir/Profile/metadata#type",
                        "valueString": "ResourceReference"
                    },
                    {
                        "url": "http://www.healthintersections.com.au/fhir/Profile/metadata#reference",
                        "valueString": "/Encounter?subject=$subj&patient=$subj&encounter=$encounter"
                    }
                ],
                "linkId": "Composition.encounter",
                "question": [
                    {
                        "linkId": "Composition.encounter.value",
                        "text": "Context of the conposition",
                        "type": "reference"
                    }
                ]
            },
            {
                "extension": [
                    {
                        "url": "http://hl7.org/fhir/Profile/questionnaire-extensions#flyover",
                        "valueString": "The root of the sections that make up the composition."
                    }
                ],
                "linkId": "Composition.section",
                "title": "Composition is broken into sections",
                "repeats": true,
                "group": [
                    {
                        "extension": [
                            {
                                "url": "http://hl7.org/fhir/Profile/questionnaire-extensions#flyover",
                                "valueString": "The heading for this particular section.  This will be part of the rendered content for the document. null"
                            },
                            {
                                "url": "http://www.healthintersections.com.au/fhir/Profile/metadata#type",
                                "valueString": "string"
                            }
                        ],
                        "linkId": "Composition.section.title",
                        "question": [
                            {
                                "linkId": "Composition.section.title.value",
                                "text": "Label for section",
                                "type": "string"
                            }
                        ]
                    },
                    {
                        "extension": [
                            {
                                "url": "http://hl7.org/fhir/Profile/questionnaire-extensions#flyover",
                                "valueString": "A code identifying the kind of content contained within the section. null"
                            },
                            {
                                "url": "http://www.healthintersections.com.au/fhir/Profile/metadata#type",
                                "valueString": "CodeableConcept"
                            }
                        ],
                        "linkId": "Composition.section.code",
                        "text": "Classification of section (recommended)",
                        "question": [
                            {
                                "linkId": "Composition.section.code.coding",
                                "text": "code:",
                                "type": "open-choice",
                                "repeats": true,
                                "options": {
                                    "reference": "http://hl7.org/fhir/vs/doc-section-codes"
                                }
                            },
                            {
                                "linkId": "Composition.section.code.text",
                                "text": "text:",
                                "type": "string"
                            }
                        ]
                    },
                    {
                        "extension": [
                            {
                                "url": "http://hl7.org/fhir/Profile/questionnaire-extensions#flyover",
                                "valueString": "Identifies the primary subject of the section."
                            }
                        ],
                        "linkId": "Composition.section.subject",
                        "text": "If section different to composition",
                        "question": [
                            {
                                "linkId": "Composition.section.subject._type",
                                "text": "type",
                                "type": "choice",
                                "options": {
                                    "reference": "#vs4"
                                },
                                "group": [
                                    {
                                        "extension": [
                                            {
                                                "url": "http://www.healthintersections.com.au/fhir/Profile/metadata#type",
                                                "valueString": "ResourceReference"
                                            },
                                            {
                                                "url": "http://www.healthintersections.com.au/fhir/Profile/metadata#reference",
                                                "valueString": "/Patient?subject=$subj&patient=$subj&encounter=$encounter"
                                            }
                                        ],
                                        "linkId": "Composition.section.subject._Patient",
                                        "question": [
                                            {
                                                "linkId": "Composition.section.subject._Patient.value",
                                                "text": "Patient",
                                                "type": "reference"
                                            }
                                        ]
                                    },
                                    {
                                        "extension": [
                                            {
                                                "url": "http://www.healthintersections.com.au/fhir/Profile/metadata#type",
                                                "valueString": "ResourceReference"
                                            },
                                            {
                                                "url": "http://www.healthintersections.com.au/fhir/Profile/metadata#reference",
                                                "valueString": "/Group?subject=$subj&patient=$subj&encounter=$encounter"
                                            }
                                        ],
                                        "linkId": "Composition.section.subject._Group",
                                        "question": [
                                            {
                                                "linkId": "Composition.section.subject._Group.value",
                                                "text": "Group",
                                                "type": "reference"
                                            }
                                        ]
                                    },
                                    {
                                        "extension": [
                                            {
                                                "url": "http://www.healthintersections.com.au/fhir/Profile/metadata#type",
                                                "valueString": "ResourceReference"
                                            },
                                            {
                                                "url": "http://www.healthintersections.com.au/fhir/Profile/metadata#reference",
                                                "valueString": "/Device?subject=$subj&patient=$subj&encounter=$encounter"
                                            }
                                        ],
                                        "linkId": "Composition.section.subject._Device",
                                        "question": [
                                            {
                                                "linkId": "Composition.section.subject._Device.value",
                                                "text": "Device",
                                                "type": "reference"
                                            }
                                        ]
                                    }
                                ]
                            }
                        ]
                    },
                    {
                        "extension": [
                            {
                                "url": "http://hl7.org/fhir/Profile/questionnaire-extensions#flyover",
                                "valueString": "Identifies the discrete data that provides the content for the section."
                            },
                            {
                                "url": "http://www.healthintersections.com.au/fhir/Profile/metadata#type",
                                "valueString": "ResourceReference"
                            },
                            {
                                "url": "http://www.healthintersections.com.au/fhir/Profile/metadata#reference",
                                "valueString": "/_search?subject=$subj&patient=$subj&encounter=$encounter"
                            }
                        ],
                        "linkId": "Composition.section.content",
                        "question": [
                            {
                                "linkId": "Composition.section.content.value",
                                "text": "The actual data for the section",
                                "type": "reference"
                            }
                        ]
                    },
                    {
                        "extension": [
                            {
                                "url": "http://hl7.org/fhir/Profile/questionnaire-extensions#flyover",
                                "valueString": "A nested sub-section within this section."
                            }
                        ],
                        "linkId": "Composition.section.section",
                        "title": "Nested Section",
                        "repeats": true
                    }
                ]
            }
        ]
    }
}