{
    "resourceType": "Questionnaire",
    "text": {
        "status": "generated",
        "div": "<div><p><b>Generated Narrative with Details</b></p><p><b>status</b>: draft</p><p><b>date</b>: 2-Sep 2014 5:51</p><p><b>publisher</b>: HL7 FHIR Standard</p><blockquote><p><b>group</b></p><p><b>linkId</b>: DocumentManifest</p><p><b>title</b>: A manifest that defines a set of documents</p><p><b>required</b>: true</p><blockquote><p><b>group</b></p></blockquote><blockquote><p><b>group</b></p></blockquote><blockquote><p><b>group</b></p></blockquote><blockquote><p><b>group</b></p></blockquote><blockquote><p><b>group</b></p></blockquote><blockquote><p><b>group</b></p></blockquote><blockquote><p><b>group</b></p></blockquote><blockquote><p><b>group</b></p></blockquote><blockquote><p><b>group</b></p></blockquote><blockquote><p><b>group</b></p></blockquote><blockquote><p><b>group</b></p></blockquote><blockquote><p><b>group</b></p></blockquote><blockquote><p><b>group</b></p></blockquote></blockquote></div>"
    },
    "contained": [
        {
            "resourceType": "ValueSet",
            "id": "vs1",
            "name": "Type options for DocumentManifest.subject",
            "description": "Type options for DocumentManifest.subject",
            "status": "active",
            "define": {
                "system": "urn:uuid:8ea8dd65-71e3-499c-9403-77bf6c1d6ed4",
                "concept": [
                    {
                        "code": "Patient",
                        "display": "Patient"
                    },
                    {
                        "code": "Practitioner",
                        "display": "Practitioner"
                    },
                    {
                        "code": "Group",
                        "display": "Group"
                    },
                    {
                        "code": "Device",
                        "display": "Device"
                    }
                ]
            }
        },
        {
            "resourceType": "ValueSet",
            "id": "vs2",
            "name": "Type options for DocumentManifest.recipient",
            "description": "Type options for DocumentManifest.recipient",
            "status": "active",
            "define": {
                "system": "urn:uuid:a237f100-8c45-413a-95a6-954bc423b708",
                "concept": [
                    {
                        "code": "Patient",
                        "display": "Patient"
                    },
                    {
                        "code": "Practitioner",
                        "display": "Practitioner"
                    },
                    {
                        "code": "Organization",
                        "display": "Organization"
                    }
                ]
            }
        },
        {
            "resourceType": "ValueSet",
            "id": "vs3",
            "name": "Type options for DocumentManifest.author",
            "description": "Type options for DocumentManifest.author",
            "status": "active",
            "define": {
                "system": "urn:uuid:461c03ff-3da5-4595-9e88-2e949af1a80c",
                "concept": [
                    {
                        "code": "Practitioner",
                        "display": "Practitioner"
                    },
                    {
                        "code": "Device",
                        "display": "Device"
                    },
                    {
                        "code": "Patient",
                        "display": "Patient"
                    },
                    {
                        "code": "RelatedPerson",
                        "display": "RelatedPerson"
                    }
                ]
            }
        },
        {
            "resourceType": "ValueSet",
            "id": "vs4",
            "name": "Type options for DocumentManifest.content",
            "description": "Type options for DocumentManifest.content",
            "status": "active",
            "define": {
                "system": "urn:uuid:ddf0a69c-e044-4b64-bfdb-1f78a3b4ec6e",
                "concept": [
                    {
                        "code": "DocumentReference",
                        "display": "DocumentReference"
                    },
                    {
                        "code": "Binary",
                        "display": "Binary"
                    },
                    {
                        "code": "Media",
                        "display": "Media"
                    }
                ]
            }
        }
    ],
    "status": "draft",
    "date": "2014-09-02T05:51:24.789-00:00",
    "publisher": "HL7 FHIR Standard",
    "group": {
        "extension": [
            {
                "url": "http://hl7.org/fhir/Profile/questionnaire-extensions#flyover",
                "valueString": "A manifest that defines a set of documents."
            }
        ],
        "linkId": "DocumentManifest",
        "title": "A manifest that defines a set of documents",
        "required": true,
        "group": [
            {
                "extension": [
                    {
                        "url": "http://hl7.org/fhir/Profile/questionnaire-extensions#flyover",
                        "valueString": "A single identifier that uniquely identifies this manifest. Principally used to refer to the manifest in non-FHIR contexts. null"
                    },
                    {
                        "url": "http://www.healthintersections.com.au/fhir/Profile/metadata#type",
                        "valueString": "Identifier"
                    }
                ],
                "linkId": "DocumentManifest.masterIdentifier",
                "text": "Unique Identifier for the set of documents",
                "required": true,
                "question": [
                    {
                        "linkId": "DocumentManifest.masterIdentifier.label",
                        "text": "label:",
                        "type": "string"
                    },
                    {
                        "linkId": "DocumentManifest.masterIdentifier.system",
                        "text": "system:",
                        "type": "string"
                    },
                    {
                        "linkId": "DocumentManifest.masterIdentifier.value",
                        "text": "value:",
                        "type": "string"
                    }
                ]
            },
            {
                "extension": [
                    {
                        "url": "http://hl7.org/fhir/Profile/questionnaire-extensions#flyover",
                        "valueString": "Other identifiers associated with the document, including version independent, source record and workflow related identifiers."
                    },
                    {
                        "url": "http://www.healthintersections.com.au/fhir/Profile/metadata#type",
                        "valueString": "Identifier"
                    }
                ],
                "linkId": "DocumentManifest.identifier",
                "text": "Other identifiers for the manifest",
                "repeats": true,
                "question": [
                    {
                        "linkId": "DocumentManifest.identifier.label",
                        "text": "label:",
                        "type": "string"
                    },
                    {
                        "linkId": "DocumentManifest.identifier.system",
                        "text": "system:",
                        "type": "string"
                    },
                    {
                        "linkId": "DocumentManifest.identifier.value",
                        "text": "value:",
                        "type": "string"
                    }
                ]
            },
            {
                "extension": [
                    {
                        "url": "http://hl7.org/fhir/Profile/questionnaire-extensions#flyover",
                        "valueString": "Who or what the set of documents is about. The documents can be about a person, (patient or healthcare practitioner), a device (i.e. machine) or even a group of subjects (such as a document about a herd of farm animals, or a set of patients that share a common exposure). If the documents cross more than one subject, then more than one subject is allowed here (unusual use case). null"
                    }
                ],
                "linkId": "DocumentManifest.subject",
                "text": "The subject of the set of documents",
                "required": true,
                "repeats": true,
                "question": [
                    {
                        "linkId": "DocumentManifest.subject._type",
                        "text": "type",
                        "type": "choice",
                        "options": {
                            "reference": "#vs1"
                        },
                        "group": [
                            {
                                "extension": [
                                    {
                                        "url": "http://www.healthintersections.com.au/fhir/Profile/metadata#type",
                                        "valueString": "ResourceReference"
                                    },
                                    {
                                        "url": "http://www.healthintersections.com.au/fhir/Profile/metadata#reference",
                                        "valueString": "/Patient?subject=$subj&patient=$subj&encounter=$encounter"
                                    }
                                ],
                                "linkId": "DocumentManifest.subject._Patient",
                                "question": [
                                    {
                                        "linkId": "DocumentManifest.subject._Patient.value",
                                        "text": "Patient",
                                        "type": "reference"
                                    }
                                ]
                            },
                            {
                                "extension": [
                                    {
                                        "url": "http://www.healthintersections.com.au/fhir/Profile/metadata#type",
                                        "valueString": "ResourceReference"
                                    },
                                    {
                                        "url": "http://www.healthintersections.com.au/fhir/Profile/metadata#reference",
                                        "valueString": "/Practitioner?subject=$subj&patient=$subj&encounter=$encounter"
                                    }
                                ],
                                "linkId": "DocumentManifest.subject._Practitioner",
                                "question": [
                                    {
                                        "linkId": "DocumentManifest.subject._Practitioner.value",
                                        "text": "Practitioner",
                                        "type": "reference"
                                    }
                                ]
                            },
                            {
                                "extension": [
                                    {
                                        "url": "http://www.healthintersections.com.au/fhir/Profile/metadata#type",
                                        "valueString": "ResourceReference"
                                    },
                                    {
                                        "url": "http://www.healthintersections.com.au/fhir/Profile/metadata#reference",
                                        "valueString": "/Group?subject=$subj&patient=$subj&encounter=$encounter"
                                    }
                                ],
                                "linkId": "DocumentManifest.subject._Group",
                                "question": [
                                    {
                                        "linkId": "DocumentManifest.subject._Group.value",
                                        "text": "Group",
                                        "type": "reference"
                                    }
                                ]
                            },
                            {
                                "extension": [
                                    {
                                        "url": "http://www.healthintersections.com.au/fhir/Profile/metadata#type",
                                        "valueString": "ResourceReference"
                                    },
                                    {
                                        "url": "http://www.healthintersections.com.au/fhir/Profile/metadata#reference",
                                        "valueString": "/Device?subject=$subj&patient=$subj&encounter=$encounter"
                                    }
                                ],
                                "linkId": "DocumentManifest.subject._Device",
                                "question": [
                                    {
                                        "linkId": "DocumentManifest.subject._Device.value",
                                        "text": "Device",
                                        "type": "reference"
                                    }
                                ]
                            }
                        ]
                    }
                ]
            },
            {
                "extension": [
                    {
                        "url": "http://hl7.org/fhir/Profile/questionnaire-extensions#flyover",
                        "valueString": "A patient, practitioner, or organization for which this set of documents is intended."
                    }
                ],
                "linkId": "DocumentManifest.recipient",
                "text": "Intended to get notified about this set of documents",
                "repeats": true,
                "question": [
                    {
                        "linkId": "DocumentManifest.recipient._type",
                        "text": "type",
                        "type": "choice",
                        "options": {
                            "reference": "#vs2"
                        },
                        "group": [
                            {
                                "extension": [
                                    {
                                        "url": "http://www.healthintersections.com.au/fhir/Profile/metadata#type",
                                        "valueString": "ResourceReference"
                                    },
                                    {
                                        "url": "http://www.healthintersections.com.au/fhir/Profile/metadata#reference",
                                        "valueString": "/Patient?subject=$subj&patient=$subj&encounter=$encounter"
                                    }
                                ],
                                "linkId": "DocumentManifest.recipient._Patient",
                                "question": [
                                    {
                                        "linkId": "DocumentManifest.recipient._Patient.value",
                                        "text": "Patient",
                                        "type": "reference"
                                    }
                                ]
                            },
                            {
                                "extension": [
                                    {
                                        "url": "http://www.healthintersections.com.au/fhir/Profile/metadata#type",
                                        "valueString": "ResourceReference"
                                    },
                                    {
                                        "url": "http://www.healthintersections.com.au/fhir/Profile/metadata#reference",
                                        "valueString": "/Practitioner?subject=$subj&patient=$subj&encounter=$encounter"
                                    }
                                ],
                                "linkId": "DocumentManifest.recipient._Practitioner",
                                "question": [
                                    {
                                        "linkId": "DocumentManifest.recipient._Practitioner.value",
                                        "text": "Practitioner",
                                        "type": "reference"
                                    }
                                ]
                            },
                            {
                                "extension": [
                                    {
                                        "url": "http://www.healthintersections.com.au/fhir/Profile/metadata#type",
                                        "valueString": "ResourceReference"
                                    },
                                    {
                                        "url": "http://www.healthintersections.com.au/fhir/Profile/metadata#reference",
                                        "valueString": "/Organization?subject=$subj&patient=$subj&encounter=$encounter"
                                    }
                                ],
                                "linkId": "DocumentManifest.recipient._Organization",
                                "question": [
                                    {
                                        "linkId": "DocumentManifest.recipient._Organization.value",
                                        "text": "Organization",
                                        "type": "reference"
                                    }
                                ]
                            }
                        ]
                    }
                ]
            },
            {
                "extension": [
                    {
                        "url": "http://hl7.org/fhir/Profile/questionnaire-extensions#flyover",
                        "valueString": "Specifies the kind of this set of documents (e.g. Patient Summary, Discharge Summary, Prescription, etc.). The type of a set of documents may be the same as one of the documents in it - especially if there is only one - but it may be wider. null"
                    },
                    {
                        "url": "http://www.healthintersections.com.au/fhir/Profile/metadata#type",
                        "valueString": "CodeableConcept"
                    }
                ],
                "linkId": "DocumentManifest.type",
                "text": "What kind of document set this is",
                "question": [
                    {
                        "linkId": "DocumentManifest.type.coding",
                        "text": "code:",
                        "type": "open-choice",
                        "repeats": true,
                        "options": {
                            "reference": "http://hl7.org/fhir/vs/docset-codes"
                        }
                    },
                    {
                        "linkId": "DocumentManifest.type.text",
                        "text": "text:",
                        "type": "string"
                    }
                ]
            },
            {
                "extension": [
                    {
                        "url": "http://hl7.org/fhir/Profile/questionnaire-extensions#flyover",
                        "valueString": "Identifies who is responsible for adding the information to the document."
                    }
                ],
                "linkId": "DocumentManifest.author",
                "text": "Who and/or what authored the document",
                "repeats": true,
                "question": [
                    {
                        "linkId": "DocumentManifest.author._type",
                        "text": "type",
                        "type": "choice",
                        "options": {
                            "reference": "#vs3"
                        },
                        "group": [
                            {
                                "extension": [
                                    {
                                        "url": "http://www.healthintersections.com.au/fhir/Profile/metadata#type",
                                        "valueString": "ResourceReference"
                                    },
                                    {
                                        "url": "http://www.healthintersections.com.au/fhir/Profile/metadata#reference",
                                        "valueString": "/Practitioner?subject=$subj&patient=$subj&encounter=$encounter"
                                    }
                                ],
                                "linkId": "DocumentManifest.author._Practitioner",
                                "question": [
                                    {
                                        "linkId": "DocumentManifest.author._Practitioner.value",
                                        "text": "Practitioner",
                                        "type": "reference"
                                    }
                                ]
                            },
                            {
                                "extension": [
                                    {
                                        "url": "http://www.healthintersections.com.au/fhir/Profile/metadata#type",
                                        "valueString": "ResourceReference"
                                    },
                                    {
                                        "url": "http://www.healthintersections.com.au/fhir/Profile/metadata#reference",
                                        "valueString": "/Device?subject=$subj&patient=$subj&encounter=$encounter"
                                    }
                                ],
                                "linkId": "DocumentManifest.author._Device",
                                "question": [
                                    {
                                        "linkId": "DocumentManifest.author._Device.value",
                                        "text": "Device",
                                        "type": "reference"
                                    }
                                ]
                            },
                            {
                                "extension": [
                                    {
                                        "url": "http://www.healthintersections.com.au/fhir/Profile/metadata#type",
                                        "valueString": "ResourceReference"
                                    },
                                    {
                                        "url": "http://www.healthintersections.com.au/fhir/Profile/metadata#reference",
                                        "valueString": "/Patient?subject=$subj&patient=$subj&encounter=$encounter"
                                    }
                                ],
                                "linkId": "DocumentManifest.author._Patient",
                                "question": [
                                    {
                                        "linkId": "DocumentManifest.author._Patient.value",
                                        "text": "Patient",
                                        "type": "reference"
                                    }
                                ]
                            },
                            {
                                "extension": [
                                    {
                                        "url": "http://www.healthintersections.com.au/fhir/Profile/metadata#type",
                                        "valueString": "ResourceReference"
                                    },
                                    {
                                        "url": "http://www.healthintersections.com.au/fhir/Profile/metadata#reference",
                                        "valueString": "/RelatedPerson?subject=$subj&patient=$subj&encounter=$encounter"
                                    }
                                ],
                                "linkId": "DocumentManifest.author._RelatedPerson",
                                "question": [
                                    {
                                        "linkId": "DocumentManifest.author._RelatedPerson.value",
                                        "text": "RelatedPerson",
                                        "type": "reference"
                                    }
                                ]
                            }
                        ]
                    }
                ]
            },
            {
                "extension": [
                    {
                        "url": "http://hl7.org/fhir/Profile/questionnaire-extensions#flyover",
                        "valueString": "When the document manifest was created for submission to the server (not necessarily the same thing as the actual resource last modified time, since it may be modified, replicated etc)."
                    },
                    {
                        "url": "http://www.healthintersections.com.au/fhir/Profile/metadata#type",
                        "valueString": "datetime"
                    }
                ],
                "linkId": "DocumentManifest.created",
                "question": [
                    {
                        "linkId": "DocumentManifest.created.value",
                        "text": "When this document manifest created",
                        "type": "dateTime"
                    }
                ]
            },
            {
                "extension": [
                    {
                        "url": "http://hl7.org/fhir/Profile/questionnaire-extensions#flyover",
                        "valueString": "Identifies the source system, application, or software that produced the document manifest. null"
                    },
                    {
                        "url": "http://www.healthintersections.com.au/fhir/Profile/metadata#type",
                        "valueString": "uri"
                    }
                ],
                "linkId": "DocumentManifest.source",
                "question": [
                    {
                        "linkId": "DocumentManifest.source.value",
                        "text": "The source system/application/software",
                        "type": "string"
                    }
                ]
            },
            {
                "extension": [
                    {
                        "url": "http://hl7.org/fhir/Profile/questionnaire-extensions#flyover",
                        "valueString": "The status of this document manifest. null"
                    },
                    {
                        "url": "http://www.healthintersections.com.au/fhir/Profile/metadata#type",
                        "valueString": "code"
                    }
                ],
                "linkId": "DocumentManifest.status",
                "text": "current | superceded | entered in error",
                "required": true,
                "question": [
                    {
                        "linkId": "DocumentManifest.status.value",
                        "text": "Status",
                        "type": "choice",
                        "options": {
                            "reference": "http://hl7.org/fhir/vs/document-reference-status"
                        }
                    }
                ]
            },
            {
                "extension": [
                    {
                        "url": "http://hl7.org/fhir/Profile/questionnaire-extensions#flyover",
                        "valueString": "Whether this document manifest replaces another. null"
                    },
                    {
                        "url": "http://www.healthintersections.com.au/fhir/Profile/metadata#type",
                        "valueString": "ResourceReference"
                    },
                    {
                        "url": "http://www.healthintersections.com.au/fhir/Profile/metadata#reference",
                        "valueString": "/DocumentManifest?subject=$subj&patient=$subj&encounter=$encounter"
                    }
                ],
                "linkId": "DocumentManifest.supercedes",
                "question": [
                    {
                        "linkId": "DocumentManifest.supercedes.value",
                        "text": "If this document manifest replaces another",
                        "type": "reference"
                    }
                ]
            },
            {
                "extension": [
                    {
                        "url": "http://hl7.org/fhir/Profile/questionnaire-extensions#flyover",
                        "valueString": "Human-readable description of the source document. This is sometimes known as the \"title\"."
                    },
                    {
                        "url": "http://www.healthintersections.com.au/fhir/Profile/metadata#type",
                        "valueString": "string"
                    }
                ],
                "linkId": "DocumentManifest.description",
                "question": [
                    {
                        "linkId": "DocumentManifest.description.value",
                        "text": "Human-readable description (title)",
                        "type": "string"
                    }
                ]
            },
            {
                "extension": [
                    {
                        "url": "http://hl7.org/fhir/Profile/questionnaire-extensions#flyover",
                        "valueString": "A code specifying the level of confidentiality of this set of Documents."
                    },
                    {
                        "url": "http://www.healthintersections.com.au/fhir/Profile/metadata#type",
                        "valueString": "CodeableConcept"
                    }
                ],
                "linkId": "DocumentManifest.confidentiality",
                "text": "Sensitivity of set of documents",
                "question": [
                    {
                        "linkId": "DocumentManifest.confidentiality.coding",
                        "text": "code:",
                        "type": "open-choice",
                        "repeats": true,
                        "options": {
                            "reference": "http://hl7.org/fhir/v3/vs/Confidentiality"
                        }
                    },
                    {
                        "linkId": "DocumentManifest.confidentiality.text",
                        "text": "text:",
                        "type": "string"
                    }
                ]
            },
            {
                "extension": [
                    {
                        "url": "http://hl7.org/fhir/Profile/questionnaire-extensions#flyover",
                        "valueString": "The list of resources that describe the parts of this document reference. Usually, these would be document references, but direct references to binary attachments and images are also allowed. null"
                    }
                ],
                "linkId": "DocumentManifest.content",
                "text": "Contents of this set of documents",
                "required": true,
                "repeats": true,
                "question": [
                    {
                        "linkId": "DocumentManifest.content._type",
                        "text": "type",
                        "type": "choice",
                        "options": {
                            "reference": "#vs4"
                        },
                        "group": [
                            {
                                "extension": [
                                    {
                                        "url": "http://www.healthintersections.com.au/fhir/Profile/metadata#type",
                                        "valueString": "ResourceReference"
                                    },
                                    {
                                        "url": "http://www.healthintersections.com.au/fhir/Profile/metadata#reference",
                                        "valueString": "/DocumentReference?subject=$subj&patient=$subj&encounter=$encounter"
                                    }
                                ],
                                "linkId": "DocumentManifest.content._DocumentReference",
                                "question": [
                                    {
                                        "linkId": "DocumentManifest.content._DocumentReference.value",
                                        "text": "DocumentReference",
                                        "type": "reference"
                                    }
                                ]
                            },
                            {
                                "extension": [
                                    {
                                        "url": "http://www.healthintersections.com.au/fhir/Profile/metadata#type",
                                        "valueString": "ResourceReference"
                                    },
                                    {
                                        "url": "http://www.healthintersections.com.au/fhir/Profile/metadata#reference",
                                        "valueString": "/Binary?subject=$subj&patient=$subj&encounter=$encounter"
                                    }
                                ],
                                "linkId": "DocumentManifest.content._Binary",
                                "question": [
                                    {
                                        "linkId": "DocumentManifest.content._Binary.value",
                                        "text": "Binary",
                                        "type": "reference"
                                    }
                                ]
                            },
                            {
                                "extension": [
                                    {
                                        "url": "http://www.healthintersections.com.au/fhir/Profile/metadata#type",
                                        "valueString": "ResourceReference"
                                    },
                                    {
                                        "url": "http://www.healthintersections.com.au/fhir/Profile/metadata#reference",
                                        "valueString": "/Media?subject=$subj&patient=$subj&encounter=$encounter"
                                    }
                                ],
                                "linkId": "DocumentManifest.content._Media",
                                "question": [
                                    {
                                        "linkId": "DocumentManifest.content._Media.value",
                                        "text": "Media",
                                        "type": "reference"
                                    }
                                ]
                            }
                        ]
                    }
                ]
            }
        ]
    }
}