{
    "resourceType": "Questionnaire",
    "text": {
        "status": "generated",
        "div": "<div><p><b>Generated Narrative with Details</b></p><p><b>status</b>: draft</p><p><b>date</b>: 2-Sep 2014 5:51</p><p><b>publisher</b>: HL7 FHIR Standard</p><blockquote><p><b>group</b></p><p><b>linkId</b>: DocumentReference</p><p><b>title</b>: A reference to a document</p><p><b>text</b>: Usually, this is used for documents other than those defined by FHIR.</p><p><b>required</b>: true</p><blockquote><p><b>group</b></p></blockquote><blockquote><p><b>group</b></p></blockquote><blockquote><p><b>group</b></p></blockquote><blockquote><p><b>group</b></p></blockquote><blockquote><p><b>group</b></p></blockquote><blockquote><p><b>group</b></p></blockquote><blockquote><p><b>group</b></p></blockquote><blockquote><p><b>group</b></p></blockquote><blockquote><p><b>group</b></p></blockquote><blockquote><p><b>group</b></p></blockquote><blockquote><p><b>group</b></p></blockquote><blockquote><p><b>group</b></p></blockquote><blockquote><p><b>group</b></p></blockquote><blockquote><p><b>group</b></p></blockquote><blockquote><p><b>group</b></p></blockquote><blockquote><p><b>group</b></p></blockquote><blockquote><p><b>group</b></p></blockquote><blockquote><p><b>group</b></p></blockquote><blockquote><p><b>group</b></p></blockquote><blockquote><p><b>group</b></p></blockquote><blockquote><p><b>group</b></p></blockquote><blockquote><p><b>group</b></p></blockquote><blockquote><p><b>group</b></p></blockquote><blockquote><p><b>group</b></p></blockquote></blockquote></div>"
    },
    "contained": [
        {
            "resourceType": "ValueSet",
            "id": "vs1",
            "name": "Type options for DocumentReference.subject",
            "description": "Type options for DocumentReference.subject",
            "status": "active",
            "define": {
                "system": "urn:uuid:4bdaa208-1548-4cac-ba6e-f52a73fd8c85",
                "concept": [
                    {
                        "code": "Patient",
                        "display": "Patient"
                    },
                    {
                        "code": "Practitioner",
                        "display": "Practitioner"
                    },
                    {
                        "code": "Group",
                        "display": "Group"
                    },
                    {
                        "code": "Device",
                        "display": "Device"
                    }
                ]
            }
        },
        {
            "resourceType": "ValueSet",
            "id": "vs2",
            "name": "Type options for DocumentReference.author",
            "description": "Type options for DocumentReference.author",
            "status": "active",
            "define": {
                "system": "urn:uuid:fbed7b62-8f22-4d55-bdbd-c412b423d10e",
                "concept": [
                    {
                        "code": "Practitioner",
                        "display": "Practitioner"
                    },
                    {
                        "code": "Device",
                        "display": "Device"
                    },
                    {
                        "code": "Patient",
                        "display": "Patient"
                    },
                    {
                        "code": "RelatedPerson",
                        "display": "RelatedPerson"
                    }
                ]
            }
        },
        {
            "resourceType": "ValueSet",
            "id": "vs3",
            "name": "Type options for DocumentReference.authenticator",
            "description": "Type options for DocumentReference.authenticator",
            "status": "active",
            "define": {
                "system": "urn:uuid:300eec68-f2f1-4b58-83a9-e340bf694a7d",
                "concept": [
                    {
                        "code": "Practitioner",
                        "display": "Practitioner"
                    },
                    {
                        "code": "Organization",
                        "display": "Organization"
                    }
                ]
            }
        }
    ],
    "status": "draft",
    "date": "2014-09-02T05:51:24.789-00:00",
    "publisher": "HL7 FHIR Standard",
    "group": {
        "extension": [
            {
                "url": "http://hl7.org/fhir/Profile/questionnaire-extensions#flyover",
                "valueString": "A reference to a document."
            }
        ],
        "linkId": "DocumentReference",
        "title": "A reference to a document",
        "text": "Usually, this is used for documents other than those defined by FHIR.",
        "required": true,
        "group": [
            {
                "extension": [
                    {
                        "url": "http://hl7.org/fhir/Profile/questionnaire-extensions#flyover",
                        "valueString": "Document identifier as assigned by the source of the document. This identifier is specific to this version of the document. This unique identifier may be used elsewhere to identify this version of the document. null"
                    },
                    {
                        "url": "http://www.healthintersections.com.au/fhir/Profile/metadata#type",
                        "valueString": "Identifier"
                    }
                ],
                "linkId": "DocumentReference.masterIdentifier",
                "text": "Master Version Specific Identifier",
                "required": true,
                "question": [
                    {
                        "linkId": "DocumentReference.masterIdentifier.label",
                        "text": "label:",
                        "type": "string"
                    },
                    {
                        "linkId": "DocumentReference.masterIdentifier.system",
                        "text": "system:",
                        "type": "string"
                    },
                    {
                        "linkId": "DocumentReference.masterIdentifier.value",
                        "text": "value:",
                        "type": "string"
                    }
                ]
            },
            {
                "extension": [
                    {
                        "url": "http://hl7.org/fhir/Profile/questionnaire-extensions#flyover",
                        "valueString": "Other identifiers associated with the document, including version independent, source record and workflow related identifiers."
                    },
                    {
                        "url": "http://www.healthintersections.com.au/fhir/Profile/metadata#type",
                        "valueString": "Identifier"
                    }
                ],
                "linkId": "DocumentReference.identifier",
                "text": "Other identifiers for the document",
                "repeats": true,
                "question": [
                    {
                        "linkId": "DocumentReference.identifier.label",
                        "text": "label:",
                        "type": "string"
                    },
                    {
                        "linkId": "DocumentReference.identifier.system",
                        "text": "system:",
                        "type": "string"
                    },
                    {
                        "linkId": "DocumentReference.identifier.value",
                        "text": "value:",
                        "type": "string"
                    }
                ]
            },
            {
                "extension": [
                    {
                        "url": "http://hl7.org/fhir/Profile/questionnaire-extensions#flyover",
                        "valueString": "Who or what the document is about. The document can be about a person, (patient or healthcare practitioner), a device (I.e. machine) or even a group of subjects (such as a document about a herd of farm animals, or a set of patients that share a common exposure). null"
                    }
                ],
                "linkId": "DocumentReference.subject",
                "text": "Who|what is the subject of the document",
                "required": true,
                "question": [
                    {
                        "linkId": "DocumentReference.subject._type",
                        "text": "type",
                        "type": "choice",
                        "options": {
                            "reference": "#vs1"
                        },
                        "group": [
                            {
                                "extension": [
                                    {
                                        "url": "http://www.healthintersections.com.au/fhir/Profile/metadata#type",
                                        "valueString": "ResourceReference"
                                    },
                                    {
                                        "url": "http://www.healthintersections.com.au/fhir/Profile/metadata#reference",
                                        "valueString": "/Patient?subject=$subj&patient=$subj&encounter=$encounter"
                                    }
                                ],
                                "linkId": "DocumentReference.subject._Patient",
                                "question": [
                                    {
                                        "linkId": "DocumentReference.subject._Patient.value",
                                        "text": "Patient",
                                        "type": "reference"
                                    }
                                ]
                            },
                            {
                                "extension": [
                                    {
                                        "url": "http://www.healthintersections.com.au/fhir/Profile/metadata#type",
                                        "valueString": "ResourceReference"
                                    },
                                    {
                                        "url": "http://www.healthintersections.com.au/fhir/Profile/metadata#reference",
                                        "valueString": "/Practitioner?subject=$subj&patient=$subj&encounter=$encounter"
                                    }
                                ],
                                "linkId": "DocumentReference.subject._Practitioner",
                                "question": [
                                    {
                                        "linkId": "DocumentReference.subject._Practitioner.value",
                                        "text": "Practitioner",
                                        "type": "reference"
                                    }
                                ]
                            },
                            {
                                "extension": [
                                    {
                                        "url": "http://www.healthintersections.com.au/fhir/Profile/metadata#type",
                                        "valueString": "ResourceReference"
                                    },
                                    {
                                        "url": "http://www.healthintersections.com.au/fhir/Profile/metadata#reference",
                                        "valueString": "/Group?subject=$subj&patient=$subj&encounter=$encounter"
                                    }
                                ],
                                "linkId": "DocumentReference.subject._Group",
                                "question": [
                                    {
                                        "linkId": "DocumentReference.subject._Group.value",
                                        "text": "Group",
                                        "type": "reference"
                                    }
                                ]
                            },
                            {
                                "extension": [
                                    {
                                        "url": "http://www.healthintersections.com.au/fhir/Profile/metadata#type",
                                        "valueString": "ResourceReference"
                                    },
                                    {
                                        "url": "http://www.healthintersections.com.au/fhir/Profile/metadata#reference",
                                        "valueString": "/Device?subject=$subj&patient=$subj&encounter=$encounter"
                                    }
                                ],
                                "linkId": "DocumentReference.subject._Device",
                                "question": [
                                    {
                                        "linkId": "DocumentReference.subject._Device.value",
                                        "text": "Device",
                                        "type": "reference"
                                    }
                                ]
                            }
                        ]
                    }
                ]
            },
            {
                "extension": [
                    {
                        "url": "http://hl7.org/fhir/Profile/questionnaire-extensions#flyover",
                        "valueString": "Specifies the particular kind of document (e.g. Patient Summary, Discharge Summary, Prescription, etc.)."
                    },
                    {
                        "url": "http://www.healthintersections.com.au/fhir/Profile/metadata#type",
                        "valueString": "CodeableConcept"
                    }
                ],
                "linkId": "DocumentReference.type",
                "text": "What kind of document this is (LOINC if possible)",
                "required": true,
                "question": [
                    {
                        "linkId": "DocumentReference.type.coding",
                        "text": "code:",
                        "type": "open-choice",
                        "repeats": true,
                        "options": {
                            "reference": "http://hl7.org/fhir/vs/doc-codes"
                        }
                    },
                    {
                        "linkId": "DocumentReference.type.text",
                        "text": "text:",
                        "type": "string"
                    }
                ]
            },
            {
                "extension": [
                    {
                        "url": "http://hl7.org/fhir/Profile/questionnaire-extensions#flyover",
                        "valueString": "A categorization for the type of the document. This may be implied by or derived from the code specified in the Document Type."
                    },
                    {
                        "url": "http://www.healthintersections.com.au/fhir/Profile/metadata#type",
                        "valueString": "CodeableConcept"
                    }
                ],
                "linkId": "DocumentReference.class",
                "text": "Categorization of Document",
                "question": [
                    {
                        "linkId": "DocumentReference.class.coding",
                        "text": "code:",
                        "type": "open-choice",
                        "repeats": true,
                        "options": {
                            "reference": "http://hl7.org/fhir/vs/xds-typecodes"
                        }
                    },
                    {
                        "linkId": "DocumentReference.class.text",
                        "text": "text:",
                        "type": "string"
                    }
                ]
            },
            {
                "extension": [
                    {
                        "url": "http://hl7.org/fhir/Profile/questionnaire-extensions#flyover",
                        "valueString": "Identifies who is responsible for adding the information to the document."
                    }
                ],
                "linkId": "DocumentReference.author",
                "text": "Who and/or what authored the document",
                "required": true,
                "repeats": true,
                "question": [
                    {
                        "linkId": "DocumentReference.author._type",
                        "text": "type",
                        "type": "choice",
                        "options": {
                            "reference": "#vs2"
                        },
                        "group": [
                            {
                                "extension": [
                                    {
                                        "url": "http://www.healthintersections.com.au/fhir/Profile/metadata#type",
                                        "valueString": "ResourceReference"
                                    },
                                    {
                                        "url": "http://www.healthintersections.com.au/fhir/Profile/metadata#reference",
                                        "valueString": "/Practitioner?subject=$subj&patient=$subj&encounter=$encounter"
                                    }
                                ],
                                "linkId": "DocumentReference.author._Practitioner",
                                "question": [
                                    {
                                        "linkId": "DocumentReference.author._Practitioner.value",
                                        "text": "Practitioner",
                                        "type": "reference"
                                    }
                                ]
                            },
                            {
                                "extension": [
                                    {
                                        "url": "http://www.healthintersections.com.au/fhir/Profile/metadata#type",
                                        "valueString": "ResourceReference"
                                    },
                                    {
                                        "url": "http://www.healthintersections.com.au/fhir/Profile/metadata#reference",
                                        "valueString": "/Device?subject=$subj&patient=$subj&encounter=$encounter"
                                    }
                                ],
                                "linkId": "DocumentReference.author._Device",
                                "question": [
                                    {
                                        "linkId": "DocumentReference.author._Device.value",
                                        "text": "Device",
                                        "type": "reference"
                                    }
                                ]
                            },
                            {
                                "extension": [
                                    {
                                        "url": "http://www.healthintersections.com.au/fhir/Profile/metadata#type",
                                        "valueString": "ResourceReference"
                                    },
                                    {
                                        "url": "http://www.healthintersections.com.au/fhir/Profile/metadata#reference",
                                        "valueString": "/Patient?subject=$subj&patient=$subj&encounter=$encounter"
                                    }
                                ],
                                "linkId": "DocumentReference.author._Patient",
                                "question": [
                                    {
                                        "linkId": "DocumentReference.author._Patient.value",
                                        "text": "Patient",
                                        "type": "reference"
                                    }
                                ]
                            },
                            {
                                "extension": [
                                    {
                                        "url": "http://www.healthintersections.com.au/fhir/Profile/metadata#type",
                                        "valueString": "ResourceReference"
                                    },
                                    {
                                        "url": "http://www.healthintersections.com.au/fhir/Profile/metadata#reference",
                                        "valueString": "/RelatedPerson?subject=$subj&patient=$subj&encounter=$encounter"
                                    }
                                ],
                                "linkId": "DocumentReference.author._RelatedPerson",
                                "question": [
                                    {
                                        "linkId": "DocumentReference.author._RelatedPerson.value",
                                        "text": "RelatedPerson",
                                        "type": "reference"
                                    }
                                ]
                            }
                        ]
                    }
                ]
            },
            {
                "extension": [
                    {
                        "url": "http://hl7.org/fhir/Profile/questionnaire-extensions#flyover",
                        "valueString": "Identifies the organization or group who is responsible for ongoing maintenance of and access to the document."
                    },
                    {
                        "url": "http://www.healthintersections.com.au/fhir/Profile/metadata#type",
                        "valueString": "ResourceReference"
                    },
                    {
                        "url": "http://www.healthintersections.com.au/fhir/Profile/metadata#reference",
                        "valueString": "/Organization?subject=$subj&patient=$subj&encounter=$encounter"
                    }
                ],
                "linkId": "DocumentReference.custodian",
                "question": [
                    {
                        "linkId": "DocumentReference.custodian.value",
                        "text": "Org which maintains the document",
                        "type": "reference"
                    }
                ]
            },
            {
                "extension": [
                    {
                        "url": "http://hl7.org/fhir/Profile/questionnaire-extensions#flyover",
                        "valueString": "A reference to a domain or server that manages policies under which the document is accessed and/or made available. null"
                    },
                    {
                        "url": "http://www.healthintersections.com.au/fhir/Profile/metadata#type",
                        "valueString": "uri"
                    }
                ],
                "linkId": "DocumentReference.policyManager",
                "question": [
                    {
                        "linkId": "DocumentReference.policyManager.value",
                        "text": "Manages access policies for the document",
                        "type": "string"
                    }
                ]
            },
            {
                "extension": [
                    {
                        "url": "http://hl7.org/fhir/Profile/questionnaire-extensions#flyover",
                        "valueString": "Which person or organization authenticates that this document is valid. null"
                    }
                ],
                "linkId": "DocumentReference.authenticator",
                "text": "Who/What authenticated the document",
                "question": [
                    {
                        "linkId": "DocumentReference.authenticator._type",
                        "text": "type",
                        "type": "choice",
                        "options": {
                            "reference": "#vs3"
                        },
                        "group": [
                            {
                                "extension": [
                                    {
                                        "url": "http://www.healthintersections.com.au/fhir/Profile/metadata#type",
                                        "valueString": "ResourceReference"
                                    },
                                    {
                                        "url": "http://www.healthintersections.com.au/fhir/Profile/metadata#reference",
                                        "valueString": "/Practitioner?subject=$subj&patient=$subj&encounter=$encounter"
                                    }
                                ],
                                "linkId": "DocumentReference.authenticator._Practitioner",
                                "question": [
                                    {
                                        "linkId": "DocumentReference.authenticator._Practitioner.value",
                                        "text": "Practitioner",
                                        "type": "reference"
                                    }
                                ]
                            },
                            {
                                "extension": [
                                    {
                                        "url": "http://www.healthintersections.com.au/fhir/Profile/metadata#type",
                                        "valueString": "ResourceReference"
                                    },
                                    {
                                        "url": "http://www.healthintersections.com.au/fhir/Profile/metadata#reference",
                                        "valueString": "/Organization?subject=$subj&patient=$subj&encounter=$encounter"
                                    }
                                ],
                                "linkId": "DocumentReference.authenticator._Organization",
                                "question": [
                                    {
                                        "linkId": "DocumentReference.authenticator._Organization.value",
                                        "text": "Organization",
                                        "type": "reference"
                                    }
                                ]
                            }
                        ]
                    }
                ]
            },
            {
                "extension": [
                    {
                        "url": "http://hl7.org/fhir/Profile/questionnaire-extensions#flyover",
                        "valueString": "When the document was created."
                    },
                    {
                        "url": "http://www.healthintersections.com.au/fhir/Profile/metadata#type",
                        "valueString": "datetime"
                    }
                ],
                "linkId": "DocumentReference.created",
                "question": [
                    {
                        "linkId": "DocumentReference.created.value",
                        "text": "Document creation time",
                        "type": "dateTime"
                    }
                ]
            },
            {
                "extension": [
                    {
                        "url": "http://hl7.org/fhir/Profile/questionnaire-extensions#flyover",
                        "valueString": "When the document reference was created."
                    },
                    {
                        "url": "http://www.healthintersections.com.au/fhir/Profile/metadata#type",
                        "valueString": "instant"
                    }
                ],
                "linkId": "DocumentReference.indexed",
                "required": true,
                "question": [
                    {
                        "linkId": "DocumentReference.indexed.value",
                        "text": "When this document reference created",
                        "type": "instant"
                    }
                ]
            },
            {
                "extension": [
                    {
                        "url": "http://hl7.org/fhir/Profile/questionnaire-extensions#flyover",
                        "valueString": "The status of this document reference. null"
                    },
                    {
                        "url": "http://www.healthintersections.com.au/fhir/Profile/metadata#type",
                        "valueString": "code"
                    }
                ],
                "linkId": "DocumentReference.status",
                "text": "current | superceded | entered in error",
                "required": true,
                "question": [
                    {
                        "linkId": "DocumentReference.status.value",
                        "text": "Status",
                        "type": "choice",
                        "options": {
                            "reference": "http://hl7.org/fhir/vs/document-reference-status"
                        }
                    }
                ]
            },
            {
                "extension": [
                    {
                        "url": "http://hl7.org/fhir/Profile/questionnaire-extensions#flyover",
                        "valueString": "The status of the underlying document. null"
                    },
                    {
                        "url": "http://www.healthintersections.com.au/fhir/Profile/metadata#type",
                        "valueString": "CodeableConcept"
                    }
                ],
                "linkId": "DocumentReference.docStatus",
                "text": "preliminary | final | appended | amended | entered in error",
                "question": [
                    {
                        "linkId": "DocumentReference.docStatus.coding",
                        "text": "code:",
                        "type": "open-choice",
                        "repeats": true,
                        "options": {
                            "reference": "http://hl7.org/fhir/vs/composition-status"
                        }
                    },
                    {
                        "linkId": "DocumentReference.docStatus.text",
                        "text": "text:",
                        "type": "string"
                    }
                ]
            },
            {
                "extension": [
                    {
                        "url": "http://hl7.org/fhir/Profile/questionnaire-extensions#flyover",
                        "valueString": "Relationships that this document has with other document references that already exist."
                    }
                ],
                "linkId": "DocumentReference.relatesTo",
                "title": "Relationships to other documents",
                "repeats": true,
                "group": [
                    {
                        "extension": [
                            {
                                "url": "http://hl7.org/fhir/Profile/questionnaire-extensions#flyover",
                                "valueString": "The type of relationship that this document has with anther document."
                            },
                            {
                                "url": "http://www.healthintersections.com.au/fhir/Profile/metadata#type",
                                "valueString": "code"
                            }
                        ],
                        "linkId": "DocumentReference.relatesTo.code",
                        "text": "replaces | transforms | signs | appends",
                        "required": true,
                        "question": [
                            {
                                "linkId": "DocumentReference.relatesTo.code.value",
                                "text": "Code",
                                "type": "choice",
                                "options": {
                                    "reference": "http://hl7.org/fhir/vs/document-relationship-type"
                                }
                            }
                        ]
                    },
                    {
                        "extension": [
                            {
                                "url": "http://hl7.org/fhir/Profile/questionnaire-extensions#flyover",
                                "valueString": "The target document of this relationship. null"
                            },
                            {
                                "url": "http://www.healthintersections.com.au/fhir/Profile/metadata#type",
                                "valueString": "ResourceReference"
                            },
                            {
                                "url": "http://www.healthintersections.com.au/fhir/Profile/metadata#reference",
                                "valueString": "/DocumentReference?subject=$subj&patient=$subj&encounter=$encounter"
                            }
                        ],
                        "linkId": "DocumentReference.relatesTo.target",
                        "required": true,
                        "question": [
                            {
                                "linkId": "DocumentReference.relatesTo.target.value",
                                "text": "Target of the relationship",
                                "type": "reference"
                            }
                        ]
                    }
                ]
            },
            {
                "extension": [
                    {
                        "url": "http://hl7.org/fhir/Profile/questionnaire-extensions#flyover",
                        "valueString": "Human-readable description of the source document. This is sometimes known as the \"title\"."
                    },
                    {
                        "url": "http://www.healthintersections.com.au/fhir/Profile/metadata#type",
                        "valueString": "string"
                    }
                ],
                "linkId": "DocumentReference.description",
                "question": [
                    {
                        "linkId": "DocumentReference.description.value",
                        "text": "Human-readable description (title)",
                        "type": "string"
                    }
                ]
            },
            {
                "extension": [
                    {
                        "url": "http://hl7.org/fhir/Profile/questionnaire-extensions#flyover",
                        "valueString": "A code specifying the level of confidentiality of the XDS Document."
                    },
                    {
                        "url": "http://www.healthintersections.com.au/fhir/Profile/metadata#type",
                        "valueString": "CodeableConcept"
                    }
                ],
                "linkId": "DocumentReference.confidentiality",
                "text": "Sensitivity of source document",
                "repeats": true,
                "question": [
                    {
                        "linkId": "DocumentReference.confidentiality.coding",
                        "text": "code:",
                        "type": "open-choice",
                        "repeats": true,
                        "options": {
                            "reference": "http://hl7.org/fhir/v3/vs/Confidentiality"
                        }
                    },
                    {
                        "linkId": "DocumentReference.confidentiality.text",
                        "text": "text:",
                        "type": "string"
                    }
                ]
            },
            {
                "extension": [
                    {
                        "url": "http://hl7.org/fhir/Profile/questionnaire-extensions#flyover",
                        "valueString": "The primary language in which the source document is written. null"
                    },
                    {
                        "url": "http://www.healthintersections.com.au/fhir/Profile/metadata#type",
                        "valueString": "code"
                    }
                ],
                "linkId": "DocumentReference.primaryLanguage",
                "text": "The marked primary language for the document",
                "question": [
                    {
                        "linkId": "DocumentReference.primaryLanguage.value",
                        "text": "The marked primary language for the document",
                        "type": "string"
                    }
                ]
            },
            {
                "extension": [
                    {
                        "url": "http://hl7.org/fhir/Profile/questionnaire-extensions#flyover",
                        "valueString": "The mime type of the source document."
                    },
                    {
                        "url": "http://www.healthintersections.com.au/fhir/Profile/metadata#type",
                        "valueString": "code"
                    }
                ],
                "linkId": "DocumentReference.mimeType",
                "text": "Mime type, + maybe character encoding",
                "required": true,
                "question": [
                    {
                        "linkId": "DocumentReference.mimeType.value",
                        "text": "Mime type, + maybe character encoding",
                        "type": "string"
                    }
                ]
            },
            {
                "extension": [
                    {
                        "url": "http://hl7.org/fhir/Profile/questionnaire-extensions#flyover",
                        "valueString": "An identifier that identifies that the format and content of the document conforms to additional rules beyond the base format indicated in the mimeType."
                    },
                    {
                        "url": "http://www.healthintersections.com.au/fhir/Profile/metadata#type",
                        "valueString": "uri"
                    }
                ],
                "linkId": "DocumentReference.format",
                "repeats": true,
                "question": [
                    {
                        "linkId": "DocumentReference.format.value",
                        "text": "Format/content rules for the document",
                        "type": "string"
                    }
                ]
            },
            {
                "extension": [
                    {
                        "url": "http://hl7.org/fhir/Profile/questionnaire-extensions#flyover",
                        "valueString": "The size of the source document this reference refers to in bytes. null"
                    },
                    {
                        "url": "http://www.healthintersections.com.au/fhir/Profile/metadata#type",
                        "valueString": "integer"
                    }
                ],
                "linkId": "DocumentReference.size",
                "question": [
                    {
                        "linkId": "DocumentReference.size.value",
                        "text": "Size of the document in bytes",
                        "type": "integer"
                    }
                ]
            },
            {
                "extension": [
                    {
                        "url": "http://hl7.org/fhir/Profile/questionnaire-extensions#flyover",
                        "valueString": "A hash of the source document to ensure that changes have not occurred."
                    },
                    {
                        "url": "http://www.healthintersections.com.au/fhir/Profile/metadata#type",
                        "valueString": "string"
                    }
                ],
                "linkId": "DocumentReference.hash",
                "question": [
                    {
                        "linkId": "DocumentReference.hash.value",
                        "text": "HexBinary representation of SHA1",
                        "type": "string"
                    }
                ]
            },
            {
                "extension": [
                    {
                        "url": "http://hl7.org/fhir/Profile/questionnaire-extensions#flyover",
                        "valueString": "A url at which the document can be accessed. null"
                    },
                    {
                        "url": "http://www.healthintersections.com.au/fhir/Profile/metadata#type",
                        "valueString": "uri"
                    }
                ],
                "linkId": "DocumentReference.location",
                "question": [
                    {
                        "linkId": "DocumentReference.location.value",
                        "text": "Where to access the document",
                        "type": "string"
                    }
                ]
            },
            {
                "extension": [
                    {
                        "url": "http://hl7.org/fhir/Profile/questionnaire-extensions#flyover",
                        "valueString": "A description of a service call that can be used to retrieve the document."
                    }
                ],
                "linkId": "DocumentReference.service",
                "title": "If access is not fully described by location",
                "text": "If a document can be accessed by either a service or directly by a URL (i.e. an XDS repository with an MHD access point, or a DICOM network with a WADO portal) just provide the URL.",
                "group": [
                    {
                        "extension": [
                            {
                                "url": "http://hl7.org/fhir/Profile/questionnaire-extensions#flyover",
                                "valueString": "The type of the service that can be used to access the documents."
                            },
                            {
                                "url": "http://www.healthintersections.com.au/fhir/Profile/metadata#type",
                                "valueString": "CodeableConcept"
                            }
                        ],
                        "linkId": "DocumentReference.service.type",
                        "text": "Type of service (i.e. XDS.b)",
                        "required": true,
                        "question": [
                            {
                                "linkId": "DocumentReference.service.type.coding",
                                "text": "code:",
                                "type": "open-choice",
                                "repeats": true,
                                "options": {
                                    "reference": "http://hl7.org/fhir/vs/documentreference-service-types"
                                }
                            },
                            {
                                "linkId": "DocumentReference.service.type.text",
                                "text": "text:",
                                "type": "string"
                            }
                        ]
                    },
                    {
                        "extension": [
                            {
                                "url": "http://hl7.org/fhir/Profile/questionnaire-extensions#flyover",
                                "valueString": "Where the service end-point is located."
                            },
                            {
                                "url": "http://www.healthintersections.com.au/fhir/Profile/metadata#type",
                                "valueString": "string"
                            }
                        ],
                        "linkId": "DocumentReference.service.address",
                        "question": [
                            {
                                "linkId": "DocumentReference.service.address.value",
                                "text": "Where service is located (usually a URL)",
                                "type": "string"
                            }
                        ]
                    },
                    {
                        "extension": [
                            {
                                "url": "http://hl7.org/fhir/Profile/questionnaire-extensions#flyover",
                                "valueString": "A list of named parameters that is used in the service call."
                            }
                        ],
                        "linkId": "DocumentReference.service.parameter",
                        "title": "Service call parameters",
                        "text": "The interpretation of the parameters, and how to convert them into a proper service call, is dependent on the type of the service, and needs to be specified in an implementation guide somewhere.",
                        "repeats": true,
                        "group": [
                            {
                                "extension": [
                                    {
                                        "url": "http://hl7.org/fhir/Profile/questionnaire-extensions#flyover",
                                        "valueString": "The name of a parameter. null"
                                    },
                                    {
                                        "url": "http://www.healthintersections.com.au/fhir/Profile/metadata#type",
                                        "valueString": "string"
                                    }
                                ],
                                "linkId": "DocumentReference.service.parameter.name",
                                "required": true,
                                "question": [
                                    {
                                        "linkId": "DocumentReference.service.parameter.name.value",
                                        "text": "Parameter name in service call",
                                        "type": "string"
                                    }
                                ]
                            },
                            {
                                "extension": [
                                    {
                                        "url": "http://hl7.org/fhir/Profile/questionnaire-extensions#flyover",
                                        "valueString": "The value of the named parameter. null"
                                    },
                                    {
                                        "url": "http://www.healthintersections.com.au/fhir/Profile/metadata#type",
                                        "valueString": "string"
                                    }
                                ],
                                "linkId": "DocumentReference.service.parameter.value",
                                "question": [
                                    {
                                        "linkId": "DocumentReference.service.parameter.value.value",
                                        "text": "Parameter value for the name",
                                        "type": "string"
                                    }
                                ]
                            }
                        ]
                    }
                ]
            },
            {
                "extension": [
                    {
                        "url": "http://hl7.org/fhir/Profile/questionnaire-extensions#flyover",
                        "valueString": "The clinical context in which the document was prepared."
                    }
                ],
                "linkId": "DocumentReference.context",
                "title": "Clinical context of document",
                "text": "These values are primarily added to help with searching for interesting/relevant documents.",
                "group": [
                    {
                        "extension": [
                            {
                                "url": "http://hl7.org/fhir/Profile/questionnaire-extensions#flyover",
                                "valueString": "This list of codes represents the main clinical acts, such as a colonoscopy or an appendectomy, being documented. In some cases, the event is inherent in the typeCode, such as a \"History and Physical Report\" in which the procedure being documented is necessarily a \"History and Physical\" act."
                            },
                            {
                                "url": "http://www.healthintersections.com.au/fhir/Profile/metadata#type",
                                "valueString": "CodeableConcept"
                            }
                        ],
                        "linkId": "DocumentReference.context.event",
                        "text": "Main Clinical Acts Documented",
                        "repeats": true,
                        "question": [
                            {
                                "linkId": "DocumentReference.context.event.coding",
                                "text": "code:",
                                "type": "open-choice",
                                "repeats": true,
                                "options": {
                                    "reference": "http://hl7.org/fhir/v3/vs/ActCode"
                                }
                            },
                            {
                                "linkId": "DocumentReference.context.event.text",
                                "text": "text:",
                                "type": "string"
                            }
                        ]
                    },
                    {
                        "extension": [
                            {
                                "url": "http://hl7.org/fhir/Profile/questionnaire-extensions#flyover",
                                "valueString": "The time period over which the service that is described by the document was provided. null"
                            },
                            {
                                "url": "http://www.healthintersections.com.au/fhir/Profile/metadata#type",
                                "valueString": "Period"
                            }
                        ],
                        "linkId": "DocumentReference.context.period",
                        "text": "Time of service that is being documented",
                        "question": [
                            {
                                "linkId": "DocumentReference.context.period.low",
                                "text": "start:",
                                "type": "dateTime"
                            },
                            {
                                "linkId": "DocumentReference.context.period.end",
                                "text": "end:",
                                "type": "dateTime"
                            }
                        ]
                    },
                    {
                        "extension": [
                            {
                                "url": "http://hl7.org/fhir/Profile/questionnaire-extensions#flyover",
                                "valueString": "The kind of facility where the patient was seen. null"
                            },
                            {
                                "url": "http://www.healthintersections.com.au/fhir/Profile/metadata#type",
                                "valueString": "CodeableConcept"
                            }
                        ],
                        "linkId": "DocumentReference.context.facilityType",
                        "text": "Kind of facility where patient was seen",
                        "question": [
                            {
                                "linkId": "DocumentReference.context.facilityType.coding",
                                "text": "code:",
                                "type": "open-choice",
                                "repeats": true,
                                "options": {
                                    "reference": "http://hl7.org/fhir/vs/xds-facilitycodes"
                                }
                            },
                            {
                                "linkId": "DocumentReference.context.facilityType.text",
                                "text": "text:",
                                "type": "string"
                            }
                        ]
                    }
                ]
            }
        ]
    }
}