{
    "resourceType": "Questionnaire",
    "text": {
        "status": "generated",
        "div": "<div><p><b>Generated Narrative with Details</b></p><p><b>status</b>: draft</p><p><b>date</b>: 2-Sep 2014 5:51</p><p><b>publisher</b>: HL7 FHIR Standard</p><blockquote><p><b>group</b></p><p><b>linkId</b>: List</p><p><b>title</b>: Information summarized from a list of other resources</p><p><b>required</b>: true</p><blockquote><p><b>group</b></p></blockquote><blockquote><p><b>group</b></p></blockquote><blockquote><p><b>group</b></p></blockquote><blockquote><p><b>group</b></p></blockquote><blockquote><p><b>group</b></p></blockquote><blockquote><p><b>group</b></p></blockquote><blockquote><p><b>group</b></p></blockquote><blockquote><p><b>group</b></p></blockquote><blockquote><p><b>group</b></p></blockquote></blockquote></div>"
    },
    "contained": [
        {
            "resourceType": "ValueSet",
            "id": "vs1",
            "name": "Type options for List.subject",
            "description": "Type options for List.subject",
            "status": "active",
            "define": {
                "system": "urn:uuid:e1ee0f4b-5549-49c7-9e1e-5a0db5e8541d",
                "concept": [
                    {
                        "code": "Patient",
                        "display": "Patient"
                    },
                    {
                        "code": "Group",
                        "display": "Group"
                    },
                    {
                        "code": "Device",
                        "display": "Device"
                    },
                    {
                        "code": "Location",
                        "display": "Location"
                    }
                ]
            }
        },
        {
            "resourceType": "ValueSet",
            "id": "vs2",
            "name": "Type options for List.source",
            "description": "Type options for List.source",
            "status": "active",
            "define": {
                "system": "urn:uuid:04be1aff-6dd4-4cde-8396-3b45055c66fa",
                "concept": [
                    {
                        "code": "Practitioner",
                        "display": "Practitioner"
                    },
                    {
                        "code": "Patient",
                        "display": "Patient"
                    },
                    {
                        "code": "Device",
                        "display": "Device"
                    }
                ]
            }
        }
    ],
    "status": "draft",
    "date": "2014-09-02T05:51:24.789-00:00",
    "publisher": "HL7 FHIR Standard",
    "group": {
        "extension": [
            {
                "url": "http://hl7.org/fhir/Profile/questionnaire-extensions#flyover",
                "valueString": "A set of information summarized from a list of other resources."
            }
        ],
        "linkId": "List",
        "title": "Information summarized from a list of other resources",
        "required": true,
        "group": [
            {
                "extension": [
                    {
                        "url": "http://hl7.org/fhir/Profile/questionnaire-extensions#flyover",
                        "valueString": "Identifier for the List assigned for business purposes outside the context of FHIR. null"
                    },
                    {
                        "url": "http://www.healthintersections.com.au/fhir/Profile/metadata#type",
                        "valueString": "Identifier"
                    }
                ],
                "linkId": "List.identifier",
                "text": "Business identifier",
                "repeats": true,
                "question": [
                    {
                        "linkId": "List.identifier.label",
                        "text": "label:",
                        "type": "string"
                    },
                    {
                        "linkId": "List.identifier.system",
                        "text": "system:",
                        "type": "string"
                    },
                    {
                        "linkId": "List.identifier.value",
                        "text": "value:",
                        "type": "string"
                    }
                ]
            },
            {
                "extension": [
                    {
                        "url": "http://hl7.org/fhir/Profile/questionnaire-extensions#flyover",
                        "valueString": "This code defines the purpose of the list - why it was created."
                    },
                    {
                        "url": "http://www.healthintersections.com.au/fhir/Profile/metadata#type",
                        "valueString": "CodeableConcept"
                    }
                ],
                "linkId": "List.code",
                "text": "What the purpose of this list is",
                "question": [
                    {
                        "linkId": "List.code.coding",
                        "text": "code:",
                        "type": "open-choice",
                        "repeats": true,
                        "options": {
                            "reference": "http://hl7.org/fhir/vs/list-example-codes"
                        }
                    },
                    {
                        "linkId": "List.code.text",
                        "text": "text:",
                        "type": "string"
                    }
                ]
            },
            {
                "extension": [
                    {
                        "url": "http://hl7.org/fhir/Profile/questionnaire-extensions#flyover",
                        "valueString": "The common subject (or patient) of the resources that are in the list, if there is one."
                    }
                ],
                "linkId": "List.subject",
                "text": "If all resources have the same subject",
                "question": [
                    {
                        "linkId": "List.subject._type",
                        "text": "type",
                        "type": "choice",
                        "options": {
                            "reference": "#vs1"
                        },
                        "group": [
                            {
                                "extension": [
                                    {
                                        "url": "http://www.healthintersections.com.au/fhir/Profile/metadata#type",
                                        "valueString": "ResourceReference"
                                    },
                                    {
                                        "url": "http://www.healthintersections.com.au/fhir/Profile/metadata#reference",
                                        "valueString": "/Patient?subject=$subj&patient=$subj&encounter=$encounter"
                                    }
                                ],
                                "linkId": "List.subject._Patient",
                                "question": [
                                    {
                                        "linkId": "List.subject._Patient.value",
                                        "text": "Patient",
                                        "type": "reference"
                                    }
                                ]
                            },
                            {
                                "extension": [
                                    {
                                        "url": "http://www.healthintersections.com.au/fhir/Profile/metadata#type",
                                        "valueString": "ResourceReference"
                                    },
                                    {
                                        "url": "http://www.healthintersections.com.au/fhir/Profile/metadata#reference",
                                        "valueString": "/Group?subject=$subj&patient=$subj&encounter=$encounter"
                                    }
                                ],
                                "linkId": "List.subject._Group",
                                "question": [
                                    {
                                        "linkId": "List.subject._Group.value",
                                        "text": "Group",
                                        "type": "reference"
                                    }
                                ]
                            },
                            {
                                "extension": [
                                    {
                                        "url": "http://www.healthintersections.com.au/fhir/Profile/metadata#type",
                                        "valueString": "ResourceReference"
                                    },
                                    {
                                        "url": "http://www.healthintersections.com.au/fhir/Profile/metadata#reference",
                                        "valueString": "/Device?subject=$subj&patient=$subj&encounter=$encounter"
                                    }
                                ],
                                "linkId": "List.subject._Device",
                                "question": [
                                    {
                                        "linkId": "List.subject._Device.value",
                                        "text": "Device",
                                        "type": "reference"
                                    }
                                ]
                            },
                            {
                                "extension": [
                                    {
                                        "url": "http://www.healthintersections.com.au/fhir/Profile/metadata#type",
                                        "valueString": "ResourceReference"
                                    },
                                    {
                                        "url": "http://www.healthintersections.com.au/fhir/Profile/metadata#reference",
                                        "valueString": "/Location?subject=$subj&patient=$subj&encounter=$encounter"
                                    }
                                ],
                                "linkId": "List.subject._Location",
                                "question": [
                                    {
                                        "linkId": "List.subject._Location.value",
                                        "text": "Location",
                                        "type": "reference"
                                    }
                                ]
                            }
                        ]
                    }
                ]
            },
            {
                "extension": [
                    {
                        "url": "http://hl7.org/fhir/Profile/questionnaire-extensions#flyover",
                        "valueString": "The entity responsible for deciding what the contents of the list were."
                    }
                ],
                "linkId": "List.source",
                "text": "Who and/or what defined the list contents",
                "question": [
                    {
                        "linkId": "List.source._type",
                        "text": "type",
                        "type": "choice",
                        "options": {
                            "reference": "#vs2"
                        },
                        "group": [
                            {
                                "extension": [
                                    {
                                        "url": "http://www.healthintersections.com.au/fhir/Profile/metadata#type",
                                        "valueString": "ResourceReference"
                                    },
                                    {
                                        "url": "http://www.healthintersections.com.au/fhir/Profile/metadata#reference",
                                        "valueString": "/Practitioner?subject=$subj&patient=$subj&encounter=$encounter"
                                    }
                                ],
                                "linkId": "List.source._Practitioner",
                                "question": [
                                    {
                                        "linkId": "List.source._Practitioner.value",
                                        "text": "Practitioner",
                                        "type": "reference"
                                    }
                                ]
                            },
                            {
                                "extension": [
                                    {
                                        "url": "http://www.healthintersections.com.au/fhir/Profile/metadata#type",
                                        "valueString": "ResourceReference"
                                    },
                                    {
                                        "url": "http://www.healthintersections.com.au/fhir/Profile/metadata#reference",
                                        "valueString": "/Patient?subject=$subj&patient=$subj&encounter=$encounter"
                                    }
                                ],
                                "linkId": "List.source._Patient",
                                "question": [
                                    {
                                        "linkId": "List.source._Patient.value",
                                        "text": "Patient",
                                        "type": "reference"
                                    }
                                ]
                            },
                            {
                                "extension": [
                                    {
                                        "url": "http://www.healthintersections.com.au/fhir/Profile/metadata#type",
                                        "valueString": "ResourceReference"
                                    },
                                    {
                                        "url": "http://www.healthintersections.com.au/fhir/Profile/metadata#reference",
                                        "valueString": "/Device?subject=$subj&patient=$subj&encounter=$encounter"
                                    }
                                ],
                                "linkId": "List.source._Device",
                                "question": [
                                    {
                                        "linkId": "List.source._Device.value",
                                        "text": "Device",
                                        "type": "reference"
                                    }
                                ]
                            }
                        ]
                    }
                ]
            },
            {
                "extension": [
                    {
                        "url": "http://hl7.org/fhir/Profile/questionnaire-extensions#flyover",
                        "valueString": "The date that the list was prepared."
                    },
                    {
                        "url": "http://www.healthintersections.com.au/fhir/Profile/metadata#type",
                        "valueString": "datetime"
                    }
                ],
                "linkId": "List.date",
                "question": [
                    {
                        "linkId": "List.date.value",
                        "text": "When the list was prepared",
                        "type": "dateTime"
                    }
                ]
            },
            {
                "extension": [
                    {
                        "url": "http://hl7.org/fhir/Profile/questionnaire-extensions#flyover",
                        "valueString": "Whether items in the list have a meaningful order."
                    },
                    {
                        "url": "http://www.healthintersections.com.au/fhir/Profile/metadata#type",
                        "valueString": "boolean"
                    }
                ],
                "linkId": "List.ordered",
                "question": [
                    {
                        "linkId": "List.ordered.value",
                        "text": "Whether items in the list have a meaningful order",
                        "type": "boolean"
                    }
                ]
            },
            {
                "extension": [
                    {
                        "url": "http://hl7.org/fhir/Profile/questionnaire-extensions#flyover",
                        "valueString": "How this list was prepared - whether it is a working list that is suitable for being maintained on an ongoing basis, or if it represents a snapshot of a list of items from another source, or whether it is a prepared list where items may be marked as added, modified or deleted. null"
                    },
                    {
                        "url": "http://www.healthintersections.com.au/fhir/Profile/metadata#type",
                        "valueString": "code"
                    }
                ],
                "linkId": "List.mode",
                "text": "working | snapshot | changes",
                "required": true,
                "question": [
                    {
                        "linkId": "List.mode.value",
                        "text": "Mode",
                        "type": "choice",
                        "options": {
                            "reference": "http://hl7.org/fhir/vs/list-mode"
                        }
                    }
                ]
            },
            {
                "extension": [
                    {
                        "url": "http://hl7.org/fhir/Profile/questionnaire-extensions#flyover",
                        "valueString": "Entries in this list."
                    }
                ],
                "linkId": "List.entry",
                "title": "Entries in the list",
                "text": "If there are no entries in the list, an emptyReason SHOULD be provided.",
                "repeats": true,
                "group": [
                    {
                        "extension": [
                            {
                                "url": "http://hl7.org/fhir/Profile/questionnaire-extensions#flyover",
                                "valueString": "The flag allows the system constructing the list to make one or more statements about the role and significance of the item in the list."
                            },
                            {
                                "url": "http://www.healthintersections.com.au/fhir/Profile/metadata#type",
                                "valueString": "CodeableConcept"
                            }
                        ],
                        "linkId": "List.entry.flag",
                        "text": "Workflow information about this item",
                        "repeats": true,
                        "question": [
                            {
                                "linkId": "List.entry.flag.coding",
                                "text": "code:",
                                "type": "open-choice",
                                "repeats": true,
                                "options": {
                                    "reference": "http://hl7.org/fhir/vs/list-item-flag"
                                }
                            },
                            {
                                "linkId": "List.entry.flag.text",
                                "text": "text:",
                                "type": "string"
                            }
                        ]
                    },
                    {
                        "extension": [
                            {
                                "url": "http://hl7.org/fhir/Profile/questionnaire-extensions#flyover",
                                "valueString": "True if this item is marked as deleted in the list."
                            },
                            {
                                "url": "http://www.healthintersections.com.au/fhir/Profile/metadata#type",
                                "valueString": "boolean"
                            }
                        ],
                        "linkId": "List.entry.deleted",
                        "question": [
                            {
                                "linkId": "List.entry.deleted.value",
                                "text": "If this item is actually marked as deleted",
                                "type": "boolean"
                            }
                        ]
                    },
                    {
                        "extension": [
                            {
                                "url": "http://hl7.org/fhir/Profile/questionnaire-extensions#flyover",
                                "valueString": "When this item was added to the list."
                            },
                            {
                                "url": "http://www.healthintersections.com.au/fhir/Profile/metadata#type",
                                "valueString": "datetime"
                            }
                        ],
                        "linkId": "List.entry.date",
                        "question": [
                            {
                                "linkId": "List.entry.date.value",
                                "text": "When item added to list",
                                "type": "dateTime"
                            }
                        ]
                    },
                    {
                        "extension": [
                            {
                                "url": "http://hl7.org/fhir/Profile/questionnaire-extensions#flyover",
                                "valueString": "A reference to the actual resource from which data was derived. null"
                            },
                            {
                                "url": "http://www.healthintersections.com.au/fhir/Profile/metadata#type",
                                "valueString": "ResourceReference"
                            },
                            {
                                "url": "http://www.healthintersections.com.au/fhir/Profile/metadata#reference",
                                "valueString": "/_search?subject=$subj&patient=$subj&encounter=$encounter"
                            }
                        ],
                        "linkId": "List.entry.item",
                        "required": true,
                        "question": [
                            {
                                "linkId": "List.entry.item.value",
                                "text": "Actual entry",
                                "type": "reference"
                            }
                        ]
                    }
                ]
            },
            {
                "extension": [
                    {
                        "url": "http://hl7.org/fhir/Profile/questionnaire-extensions#flyover",
                        "valueString": "If the list is empty, why the list is empty."
                    },
                    {
                        "url": "http://www.healthintersections.com.au/fhir/Profile/metadata#type",
                        "valueString": "CodeableConcept"
                    }
                ],
                "linkId": "List.emptyReason",
                "text": "Why list is empty",
                "question": [
                    {
                        "linkId": "List.emptyReason.coding",
                        "text": "code:",
                        "type": "open-choice",
                        "repeats": true,
                        "options": {
                            "reference": "http://hl7.org/fhir/vs/list-empty-reason"
                        }
                    },
                    {
                        "linkId": "List.emptyReason.text",
                        "text": "text:",
                        "type": "string"
                    }
                ]
            }
        ]
    }
}