{
    "resourceType": "Questionnaire",
    "text": {
        "status": "generated",
        "div": "<div><p><b>Generated Narrative with Details</b></p><p><b>status</b>: draft</p><p><b>date</b>: 2-Sep 2014 5:51</p><p><b>publisher</b>: HL7 FHIR Standard</p><blockquote><p><b>group</b></p><p><b>linkId</b>: ReferralRequest</p><p><b>title</b>: A request for referral or tranfer of care</p><p><b>required</b>: true</p><blockquote><p><b>group</b></p></blockquote><blockquote><p><b>group</b></p></blockquote><blockquote><p><b>group</b></p></blockquote><blockquote><p><b>group</b></p></blockquote><blockquote><p><b>group</b></p></blockquote><blockquote><p><b>group</b></p></blockquote><blockquote><p><b>group</b></p></blockquote><blockquote><p><b>group</b></p></blockquote><blockquote><p><b>group</b></p></blockquote><blockquote><p><b>group</b></p></blockquote><blockquote><p><b>group</b></p></blockquote><blockquote><p><b>group</b></p></blockquote><blockquote><p><b>group</b></p></blockquote><blockquote><p><b>group</b></p></blockquote><blockquote><p><b>group</b></p></blockquote></blockquote></div>"
    },
    "contained": [
        {
            "resourceType": "ValueSet",
            "id": "vs1",
            "name": "Type options for ReferralRequest.requester",
            "description": "Type options for ReferralRequest.requester",
            "status": "active",
            "define": {
                "system": "urn:uuid:82438fd6-01cc-4282-a9a3-1dc913f8840d",
                "concept": [
                    {
                        "code": "Practitioner",
                        "display": "Practitioner"
                    },
                    {
                        "code": "Organization",
                        "display": "Organization"
                    },
                    {
                        "code": "Patient",
                        "display": "Patient"
                    }
                ]
            }
        },
        {
            "resourceType": "ValueSet",
            "id": "vs2",
            "name": "Type options for ReferralRequest.recipient",
            "description": "Type options for ReferralRequest.recipient",
            "status": "active",
            "define": {
                "system": "urn:uuid:eb0dcec2-864e-4a2c-89f1-4bc1521689d7",
                "concept": [
                    {
                        "code": "Practitioner",
                        "display": "Practitioner"
                    },
                    {
                        "code": "Organization",
                        "display": "Organization"
                    }
                ]
            }
        }
    ],
    "status": "draft",
    "date": "2014-09-02T05:51:24.789-00:00",
    "publisher": "HL7 FHIR Standard",
    "group": {
        "extension": [
            {
                "url": "http://hl7.org/fhir/Profile/questionnaire-extensions#flyover",
                "valueString": "Used to record and send details about a request for referral service or transfer of a patient to the care of another provider or provider organisation."
            }
        ],
        "linkId": "ReferralRequest",
        "title": "A request for referral or tranfer of care",
        "required": true,
        "group": [
            {
                "extension": [
                    {
                        "url": "http://hl7.org/fhir/Profile/questionnaire-extensions#flyover",
                        "valueString": "The workflow status of the referral or transfer of care request. null"
                    },
                    {
                        "url": "http://www.healthintersections.com.au/fhir/Profile/metadata#type",
                        "valueString": "code"
                    }
                ],
                "linkId": "ReferralRequest.status",
                "text": "draft | sent | active | cancelled | refused | completed",
                "required": true,
                "question": [
                    {
                        "linkId": "ReferralRequest.status.value",
                        "text": "Status",
                        "type": "choice",
                        "options": {
                            "reference": "http://hl7.org/fhir/vs/referralstatus"
                        }
                    }
                ]
            },
            {
                "extension": [
                    {
                        "url": "http://hl7.org/fhir/Profile/questionnaire-extensions#flyover",
                        "valueString": "Business Id that uniquely identifies the referral/care transfer request instance. null"
                    },
                    {
                        "url": "http://www.healthintersections.com.au/fhir/Profile/metadata#type",
                        "valueString": "Identifier"
                    }
                ],
                "linkId": "ReferralRequest.identifier",
                "text": "Identifier of request",
                "repeats": true,
                "question": [
                    {
                        "linkId": "ReferralRequest.identifier.label",
                        "text": "label:",
                        "type": "string"
                    },
                    {
                        "linkId": "ReferralRequest.identifier.system",
                        "text": "system:",
                        "type": "string"
                    },
                    {
                        "linkId": "ReferralRequest.identifier.value",
                        "text": "value:",
                        "type": "string"
                    }
                ]
            },
            {
                "extension": [
                    {
                        "url": "http://hl7.org/fhir/Profile/questionnaire-extensions#flyover",
                        "valueString": "An indication of the type of referral (or where applicable the type of transfer of care) request."
                    },
                    {
                        "url": "http://www.healthintersections.com.au/fhir/Profile/metadata#type",
                        "valueString": "CodeableConcept"
                    }
                ],
                "linkId": "ReferralRequest.type",
                "text": "Referral/Transition of care request type",
                "question": [
                    {
                        "linkId": "ReferralRequest.type.coding",
                        "text": "code:",
                        "type": "open-choice",
                        "repeats": true
                    },
                    {
                        "linkId": "ReferralRequest.type.text",
                        "text": "text:",
                        "type": "string"
                    }
                ]
            },
            {
                "extension": [
                    {
                        "url": "http://hl7.org/fhir/Profile/questionnaire-extensions#flyover",
                        "valueString": "Indication of the clinical domain or discipline to which the referral or transfer of care request is sent."
                    },
                    {
                        "url": "http://www.healthintersections.com.au/fhir/Profile/metadata#type",
                        "valueString": "CodeableConcept"
                    }
                ],
                "linkId": "ReferralRequest.specialty",
                "text": "The clinical specialty (discipline) that the referral is requested for",
                "question": [
                    {
                        "linkId": "ReferralRequest.specialty.coding",
                        "text": "code:",
                        "type": "open-choice",
                        "repeats": true
                    },
                    {
                        "linkId": "ReferralRequest.specialty.text",
                        "text": "text:",
                        "type": "string"
                    }
                ]
            },
            {
                "extension": [
                    {
                        "url": "http://hl7.org/fhir/Profile/questionnaire-extensions#flyover",
                        "valueString": "An indication of the urgency of referral (or where applicable the type of transfer of care) request. null"
                    },
                    {
                        "url": "http://www.healthintersections.com.au/fhir/Profile/metadata#type",
                        "valueString": "CodeableConcept"
                    }
                ],
                "linkId": "ReferralRequest.priority",
                "text": "Urgency of referral / transfer of care request",
                "question": [
                    {
                        "linkId": "ReferralRequest.priority.coding",
                        "text": "code:",
                        "type": "open-choice",
                        "repeats": true
                    },
                    {
                        "linkId": "ReferralRequest.priority.text",
                        "text": "text:",
                        "type": "string"
                    }
                ]
            },
            {
                "extension": [
                    {
                        "url": "http://hl7.org/fhir/Profile/questionnaire-extensions#flyover",
                        "valueString": "The patient who is the subject of a referral or transfer of care request."
                    },
                    {
                        "url": "http://www.healthintersections.com.au/fhir/Profile/metadata#type",
                        "valueString": "ResourceReference"
                    },
                    {
                        "url": "http://www.healthintersections.com.au/fhir/Profile/metadata#reference",
                        "valueString": "/Patient?subject=$subj&patient=$subj&encounter=$encounter"
                    }
                ],
                "linkId": "ReferralRequest.subject",
                "question": [
                    {
                        "linkId": "ReferralRequest.subject.value",
                        "text": "Patient/subject of referral or care transfer request",
                        "type": "reference"
                    }
                ]
            },
            {
                "extension": [
                    {
                        "url": "http://hl7.org/fhir/Profile/questionnaire-extensions#flyover",
                        "valueString": "The healthcare provider or provider organization who/which initaited the referral/transfer of care request. Can also be  Patient (a self referral). null"
                    }
                ],
                "linkId": "ReferralRequest.requester",
                "text": "Requester of referral / transfer of care",
                "question": [
                    {
                        "linkId": "ReferralRequest.requester._type",
                        "text": "type",
                        "type": "choice",
                        "options": {
                            "reference": "#vs1"
                        },
                        "group": [
                            {
                                "extension": [
                                    {
                                        "url": "http://www.healthintersections.com.au/fhir/Profile/metadata#type",
                                        "valueString": "ResourceReference"
                                    },
                                    {
                                        "url": "http://www.healthintersections.com.au/fhir/Profile/metadata#reference",
                                        "valueString": "/Practitioner?subject=$subj&patient=$subj&encounter=$encounter"
                                    }
                                ],
                                "linkId": "ReferralRequest.requester._Practitioner",
                                "question": [
                                    {
                                        "linkId": "ReferralRequest.requester._Practitioner.value",
                                        "text": "Practitioner",
                                        "type": "reference"
                                    }
                                ]
                            },
                            {
                                "extension": [
                                    {
                                        "url": "http://www.healthintersections.com.au/fhir/Profile/metadata#type",
                                        "valueString": "ResourceReference"
                                    },
                                    {
                                        "url": "http://www.healthintersections.com.au/fhir/Profile/metadata#reference",
                                        "valueString": "/Organization?subject=$subj&patient=$subj&encounter=$encounter"
                                    }
                                ],
                                "linkId": "ReferralRequest.requester._Organization",
                                "question": [
                                    {
                                        "linkId": "ReferralRequest.requester._Organization.value",
                                        "text": "Organization",
                                        "type": "reference"
                                    }
                                ]
                            },
                            {
                                "extension": [
                                    {
                                        "url": "http://www.healthintersections.com.au/fhir/Profile/metadata#type",
                                        "valueString": "ResourceReference"
                                    },
                                    {
                                        "url": "http://www.healthintersections.com.au/fhir/Profile/metadata#reference",
                                        "valueString": "/Patient?subject=$subj&patient=$subj&encounter=$encounter"
                                    }
                                ],
                                "linkId": "ReferralRequest.requester._Patient",
                                "question": [
                                    {
                                        "linkId": "ReferralRequest.requester._Patient.value",
                                        "text": "Patient",
                                        "type": "reference"
                                    }
                                ]
                            }
                        ]
                    }
                ]
            },
            {
                "extension": [
                    {
                        "url": "http://hl7.org/fhir/Profile/questionnaire-extensions#flyover",
                        "valueString": "The healthcare provider(s) or provider organization(s) who/which is to receive the referral/transfer of care request."
                    }
                ],
                "linkId": "ReferralRequest.recipient",
                "text": "Receiver of referral / transfer of care request",
                "repeats": true,
                "question": [
                    {
                        "linkId": "ReferralRequest.recipient._type",
                        "text": "type",
                        "type": "choice",
                        "options": {
                            "reference": "#vs2"
                        },
                        "group": [
                            {
                                "extension": [
                                    {
                                        "url": "http://www.healthintersections.com.au/fhir/Profile/metadata#type",
                                        "valueString": "ResourceReference"
                                    },
                                    {
                                        "url": "http://www.healthintersections.com.au/fhir/Profile/metadata#reference",
                                        "valueString": "/Practitioner?subject=$subj&patient=$subj&encounter=$encounter"
                                    }
                                ],
                                "linkId": "ReferralRequest.recipient._Practitioner",
                                "question": [
                                    {
                                        "linkId": "ReferralRequest.recipient._Practitioner.value",
                                        "text": "Practitioner",
                                        "type": "reference"
                                    }
                                ]
                            },
                            {
                                "extension": [
                                    {
                                        "url": "http://www.healthintersections.com.au/fhir/Profile/metadata#type",
                                        "valueString": "ResourceReference"
                                    },
                                    {
                                        "url": "http://www.healthintersections.com.au/fhir/Profile/metadata#reference",
                                        "valueString": "/Organization?subject=$subj&patient=$subj&encounter=$encounter"
                                    }
                                ],
                                "linkId": "ReferralRequest.recipient._Organization",
                                "question": [
                                    {
                                        "linkId": "ReferralRequest.recipient._Organization.value",
                                        "text": "Organization",
                                        "type": "reference"
                                    }
                                ]
                            }
                        ]
                    }
                ]
            },
            {
                "extension": [
                    {
                        "url": "http://hl7.org/fhir/Profile/questionnaire-extensions#flyover",
                        "valueString": "The encounter at which the request for referral or transfer of care is initiated. null"
                    },
                    {
                        "url": "http://www.healthintersections.com.au/fhir/Profile/metadata#type",
                        "valueString": "ResourceReference"
                    },
                    {
                        "url": "http://www.healthintersections.com.au/fhir/Profile/metadata#reference",
                        "valueString": "/Encounter?subject=$subj&patient=$subj&encounter=$encounter"
                    }
                ],
                "linkId": "ReferralRequest.encounter",
                "question": [
                    {
                        "linkId": "ReferralRequest.encounter.value",
                        "text": "Encounter",
                        "type": "reference"
                    }
                ]
            },
            {
                "extension": [
                    {
                        "url": "http://hl7.org/fhir/Profile/questionnaire-extensions#flyover",
                        "valueString": "Date/DateTime the request for referral or transfer of care is sent by the author. null"
                    },
                    {
                        "url": "http://www.healthintersections.com.au/fhir/Profile/metadata#type",
                        "valueString": "datetime"
                    }
                ],
                "linkId": "ReferralRequest.dateSent",
                "question": [
                    {
                        "linkId": "ReferralRequest.dateSent.value",
                        "text": "Date referral/transfer of care request is sent",
                        "type": "dateTime"
                    }
                ]
            },
            {
                "extension": [
                    {
                        "url": "http://hl7.org/fhir/Profile/questionnaire-extensions#flyover",
                        "valueString": "Description of clinical condition indicating why referral/transfer of care is requested."
                    },
                    {
                        "url": "http://www.healthintersections.com.au/fhir/Profile/metadata#type",
                        "valueString": "CodeableConcept"
                    }
                ],
                "linkId": "ReferralRequest.reason",
                "text": "Reason for referral / Transfer of care request",
                "question": [
                    {
                        "linkId": "ReferralRequest.reason.coding",
                        "text": "code:",
                        "type": "open-choice",
                        "repeats": true
                    },
                    {
                        "linkId": "ReferralRequest.reason.text",
                        "text": "text:",
                        "type": "string"
                    }
                ]
            },
            {
                "extension": [
                    {
                        "url": "http://hl7.org/fhir/Profile/questionnaire-extensions#flyover",
                        "valueString": "The reason gives a short description of why the referral is being made, the description expands on this to support a more complete clinical summary."
                    },
                    {
                        "url": "http://www.healthintersections.com.au/fhir/Profile/metadata#type",
                        "valueString": "string"
                    }
                ],
                "linkId": "ReferralRequest.description",
                "question": [
                    {
                        "linkId": "ReferralRequest.description.value",
                        "text": "A textual description of the referral",
                        "type": "string"
                    }
                ]
            },
            {
                "extension": [
                    {
                        "url": "http://hl7.org/fhir/Profile/questionnaire-extensions#flyover",
                        "valueString": "The service(s) that is/are requested to be provided to the patient."
                    },
                    {
                        "url": "http://www.healthintersections.com.au/fhir/Profile/metadata#type",
                        "valueString": "CodeableConcept"
                    }
                ],
                "linkId": "ReferralRequest.serviceRequested",
                "text": "Service(s) requested",
                "repeats": true,
                "question": [
                    {
                        "linkId": "ReferralRequest.serviceRequested.coding",
                        "text": "code:",
                        "type": "open-choice",
                        "repeats": true
                    },
                    {
                        "linkId": "ReferralRequest.serviceRequested.text",
                        "text": "text:",
                        "type": "string"
                    }
                ]
            },
            {
                "extension": [
                    {
                        "url": "http://hl7.org/fhir/Profile/questionnaire-extensions#flyover",
                        "valueString": "Any additional (administrative, financial or clinical) information required to support request for referral or transfer of care."
                    },
                    {
                        "url": "http://www.healthintersections.com.au/fhir/Profile/metadata#type",
                        "valueString": "ResourceReference"
                    },
                    {
                        "url": "http://www.healthintersections.com.au/fhir/Profile/metadata#reference",
                        "valueString": "/_search?subject=$subj&patient=$subj&encounter=$encounter"
                    }
                ],
                "linkId": "ReferralRequest.supportingInformation",
                "repeats": true,
                "question": [
                    {
                        "linkId": "ReferralRequest.supportingInformation.value",
                        "text": "Additonal information to support referral or transfer of care request",
                        "type": "reference"
                    }
                ]
            },
            {
                "extension": [
                    {
                        "url": "http://hl7.org/fhir/Profile/questionnaire-extensions#flyover",
                        "valueString": "The period of time within which the services identified in the referral/transfer of care is specified or required to occur. null"
                    },
                    {
                        "url": "http://www.healthintersections.com.au/fhir/Profile/metadata#type",
                        "valueString": "Period"
                    }
                ],
                "linkId": "ReferralRequest.fulfillmentTime",
                "text": "Requested service(s) fulfillment time",
                "question": [
                    {
                        "linkId": "ReferralRequest.fulfillmentTime.low",
                        "text": "start:",
                        "type": "dateTime"
                    },
                    {
                        "linkId": "ReferralRequest.fulfillmentTime.end",
                        "text": "end:",
                        "type": "dateTime"
                    }
                ]
            }
        ]
    }
}